pos,corr_resp,thisN,thisTrialN,thisRepN,key_resp.keys,key_resp.corr,key_resp.rt,key_resp.duration,trials.thisRepN,trials.thisTrialN,trials.thisN,trials.thisIndex,trials_2.thisRepN,trials_2.thisTrialN,trials_2.thisN,trials_2.thisIndex,thisRow.t,notes,trial.started,fixation.started,line1.started,line2.started,line3.started,line4.started,fixation.stopped,probe.started,key_resp.started,trial.stopped,trials.key_resp.keys,trials.key_resp.corr,trials.key_resp.rt,trials.key_resp.duration,trials_2.key_resp.keys,trials_2.key_resp.corr,trials_2.key_resp.rt,trials_2.key_resp.duration,participant,session,date,expName,psychopyVersion,frameRate,expStart
-50,x,0,0,0,x,1,0.9425642,None,0,0,0,0,,,,,0.0483537,,0.0280758,0.0483537,1.000347,1.000347,1.000347,1.000347,1.0498106,2.000199,2.000199,2.9563197,x,1,0.9425642,None,,,,,142662,1,2024-10-17_21h23.34.089,untitled,2024.2.1post4,61.34239238,2024-10-17 21h23.39.257599 +0530
150,y,1,1,0,v,0,0.7243494,None,0,1,1,1,,,,,2.9658982,,2.9566852,2.9658982,3.9667617,3.9667617,3.9667617,3.9667617,3.9667617,4.9660222,4.9660222,5.7044304,v,0,0.7243494,None,,,,,142662,1,2024-10-17_21h23.34.089,untitled,2024.2.1post4,61.34239238,2024-10-17 21h23.39.257599 +0530
50,c,2,2,0,c,1,0.5982246,None,0,2,2,2,,,,,5.716152,,5.7047403,5.716152,6.7164488,6.7164488,6.7164488,6.7164488,6.7164488,7.7157531,7.7157531,8.3217756,c,1,0.5982246,None,,,,,142662,1,2024-10-17_21h23.34.089,untitled,2024.2.1post4,61.34239238,2024-10-17 21h23.39.257599 +0530
-150,z,3,3,0,z,1,0.3602342,None,0,3,3,3,,,,,8.3335034,,8.322111,8.3335034,9.3323028,9.3323028,9.3323028,9.3323028,9.3323028,10.3332303,10.3332303,10.7037158,z,1,0.3602342,None,,,,,142662,1,2024-10-17_21h23.34.089,untitled,2024.2.1post4,61.34239238,2024-10-17 21h23.39.257599 +0530
-50,x,4,0,1,x,1,0.6248455,None,1,0,4,0,,,,,10.7168019,,10.7040554,10.7168019,11.7163024,11.7163024,11.7163024,11.7163024,11.7163024,12.7161932,12.7161932,13.3526866,x,1,0.6248455,None,,,,,142662,1,2024-10-17_21h23.34.089,untitled,2024.2.1post4,61.34239238,2024-10-17 21h23.39.257599 +0530
150,y,5,1,1,v,0,0.7408267,None,1,1,5,1,,,,,13.3665524,,13.35292,13.3665524,14.350142,14.350142,14.350142,14.350142,14.3663743,15.3668022,15.3668022,16.1205415,v,0,0.7408267,None,,,,,142662,1,2024-10-17_21h23.34.089,untitled,2024.2.1post4,61.34239238,2024-10-17 21h23.39.257599 +0530
50,c,6,2,1,c,1,0.486227,None,1,2,6,2,,,,,16.1329364,,16.1218055,16.1329364,17.1322165,17.1322165,17.1322165,17.1322165,17.1322165,18.1320632,18.1320632,18.6203175,c,1,0.486227,None,,,,,142662,1,2024-10-17_21h23.34.089,untitled,2024.2.1post4,61.34239238,2024-10-17 21h23.39.257599 +0530
-150,z,7,3,1,z,1,0.5405518,None,1,3,7,3,,,,,18.6347787,,18.6205922,18.6347787,19.6333843,19.6333843,19.6333843,19.6333843,19.6506161,20.6325013,20.6325013,21.1866404,z,1,0.5405518,None,,,,,142662,1,2024-10-17_21h23.34.089,untitled,2024.2.1post4,61.34239238,2024-10-17 21h23.39.257599 +0530
-50,x,8,0,2,x,1,0.5541692,None,2,0,8,0,,,,,21.1992238,,21.1869701,21.1992238,22.1998332,22.1998332,22.1998332,22.1998332,22.1998332,23.1987698,23.1987698,23.7546885,x,1,0.5541692,None,,,,,142662,1,2024-10-17_21h23.34.089,untitled,2024.2.1post4,61.34239238,2024-10-17 21h23.39.257599 +0530
150,y,9,1,2,v,0,0.6210035,None,2,1,9,1,,,,,23.7660812,,23.7550952,23.7660812,24.7657925,24.7657925,24.7657925,24.7657925,24.7657925,25.7662491,25.7662491,26.4032958,v,0,0.6210035,None,,,,,142662,1,2024-10-17_21h23.34.089,untitled,2024.2.1post4,61.34239238,2024-10-17 21h23.39.257599 +0530
50,c,10,2,2,c,1,0.5340559,None,2,2,10,2,,,,,26.4167075,,26.4036021,26.4167075,27.4163173,27.4163173,27.4163173,27.4163173,27.4163173,28.4156453,28.4156453,28.9538779,c,1,0.5340559,None,,,,,142662,1,2024-10-17_21h23.34.089,untitled,2024.2.1post4,61.34239238,2024-10-17 21h23.39.257599 +0530
-150,z,11,3,2,z,1,0.6072911,None,2,3,11,3,,,,,28.9661465,,28.9541438,28.9661465,29.9658911,29.9658911,29.9658911,29.9658911,29.9658911,30.9656371,30.9656371,31.5873369,z,1,0.6072911,None,,,,,142662,1,2024-10-17_21h23.34.089,untitled,2024.2.1post4,61.34239238,2024-10-17 21h23.39.257599 +0530
-50,x,12,0,3,x,1,0.9365866,None,3,0,12,0,,,,,31.5998893,,31.5876848,31.5998893,32.6004043,32.6004043,32.6004043,32.6004043,32.6004043,33.5991143,33.5991143,34.5515623,x,1,0.9365866,None,,,,,142662,1,2024-10-17_21h23.34.089,untitled,2024.2.1post4,61.34239238,2024-10-17 21h23.39.257599 +0530
150,y,13,1,3,v,0,0.4620004,None,3,1,13,1,,,,,34.5660292,,34.5517984,34.5660292,35.5654906,35.5654906,35.5654906,35.5654906,35.5654906,36.5652425,36.5652425,37.037283,v,0,0.4620004,None,,,,,142662,1,2024-10-17_21h23.34.089,untitled,2024.2.1post4,61.34239238,2024-10-17 21h23.39.257599 +0530
50,c,14,2,3,c,1,0.5343889,None,3,2,14,2,,,,,37.0493957,,37.037614,37.0493957,38.0484926,38.0484926,38.0484926,38.0484926,38.0484926,39.0490228,39.0490228,39.5863043,c,1,0.5343889,None,,,,,142662,1,2024-10-17_21h23.34.089,untitled,2024.2.1post4,61.34239238,2024-10-17 21h23.39.257599 +0530
-150,z,15,3,3,z,1,0.3642636,None,3,3,15,3,,,,,39.599174,,39.5867012,39.599174,40.5991238,40.5991238,40.5991238,40.5991238,40.5991238,41.5992088,41.5992088,41.9712784,z,1,0.3642636,None,,,,,142662,1,2024-10-17_21h23.34.089,untitled,2024.2.1post4,61.34239238,2024-10-17 21h23.39.257599 +0530
-50,x,16,0,4,x,1,0.5308995,None,4,0,16,0,,,,,41.9828228,,41.9716298,41.9828228,42.9835064,42.9835064,42.9835064,42.9835064,42.9835064,43.9822592,43.9822592,44.5211883,x,1,0.5308995,None,,,,,142662,1,2024-10-17_21h23.34.089,untitled,2024.2.1post4,61.34239238,2024-10-17 21h23.39.257599 +0530
150,y,17,1,4,v,0,0.4493185,None,4,1,17,1,,,,,44.5328979,,44.5216392,44.5328979,45.5328543,45.5328543,45.5328543,45.5328543,45.5328543,46.5319708,46.5319708,46.9854527,v,0,0.4493185,None,,,,,142662,1,2024-10-17_21h23.34.089,untitled,2024.2.1post4,61.34239238,2024-10-17 21h23.39.257599 +0530
50,c,18,2,4,c,1,0.5055848,None,4,2,18,2,,,,,46.9989321,,46.9858404,46.9989321,47.9986115,47.9986115,47.9986115,47.9986115,47.9986115,49.0003819,49.0003819,49.5193112,c,1,0.5055848,None,,,,,142662,1,2024-10-17_21h23.34.089,untitled,2024.2.1post4,61.34239238,2024-10-17 21h23.39.257599 +0530
-150,z,19,3,4,z,1,0.4266527,None,4,3,19,3,,,,,49.5327028,,49.5196012,49.5327028,50.5323103,50.5323103,50.5323103,50.5323103,50.5323103,51.5316492,51.5316492,51.97045,z,1,0.4266527,None,,,,,142662,1,2024-10-17_21h23.34.089,untitled,2024.2.1post4,61.34239238,2024-10-17 21h23.39.257599 +0530
-50,x,20,0,5,x,1,0.6476271,None,5,0,20,0,,,,,51.9831701,,51.9710193,51.9831701,52.9821253,52.9821253,52.9821253,52.9821253,52.9821253,53.9823762,53.9823762,54.6373801,x,1,0.6476271,None,,,,,142662,1,2024-10-17_21h23.34.089,untitled,2024.2.1post4,61.34239238,2024-10-17 21h23.39.257599 +0530
150,y,21,1,5,v,0,0.4365449,None,5,1,21,1,,,,,54.6498143,,54.637906,54.6498143,55.6484199,55.6484199,55.6484199,55.6484199,55.6484199,56.6495305,56.6495305,57.1032426,v,0,0.4365449,None,,,,,142662,1,2024-10-17_21h23.34.089,untitled,2024.2.1post4,61.34239238,2024-10-17 21h23.39.257599 +0530
50,c,22,2,5,c,1,0.6688952,None,5,2,22,2,,,,,57.11594,,57.103581,57.11594,58.1149473,58.1149473,58.1149473,58.1149473,58.1149473,59.1152284,59.1152284,59.7883713,c,1,0.6688952,None,,,,,142662,1,2024-10-17_21h23.34.089,untitled,2024.2.1post4,61.34239238,2024-10-17 21h23.39.257599 +0530
-150,z,23,3,5,z,1,0.3762361,None,5,3,23,3,,,,,59.7992814,,59.7887735,59.7992814,60.7983559,60.7983559,60.7983559,60.7983559,60.7983559,61.7988205,61.7988205,62.1861018,z,1,0.3762361,None,,,,,142662,1,2024-10-17_21h23.34.089,untitled,2024.2.1post4,61.34239238,2024-10-17 21h23.39.257599 +0530
-50,x,24,0,6,x,1,0.3090256,None,6,0,24,0,,,,,62.1981686,,62.1864497,62.1981686,63.1985466,63.1985466,63.1985466,63.1985466,63.1985466,64.1984874,64.1984874,64.5185916,x,1,0.3090256,None,,,,,142662,1,2024-10-17_21h23.34.089,untitled,2024.2.1post4,61.34239238,2024-10-17 21h23.39.257599 +0530
150,y,25,1,6,v,0,0.3655716,None,6,1,25,1,,,,,64.5324966,,64.518846,64.5324966,65.532115,65.532115,65.532115,65.532115,65.532115,66.5311421,66.5311421,66.9053511,v,0,0.3655716,None,,,,,142662,1,2024-10-17_21h23.34.089,untitled,2024.2.1post4,61.34239238,2024-10-17 21h23.39.257599 +0530
50,c,26,2,6,c,1,0.3803217,None,6,2,26,2,,,,,66.916201,,66.9057632,66.916201,67.9149103,67.9149103,67.9149103,67.9149103,67.9149103,68.9160168,68.9160168,69.3039792,c,1,0.3803217,None,,,,,142662,1,2024-10-17_21h23.34.089,untitled,2024.2.1post4,61.34239238,2024-10-17 21h23.39.257599 +0530
-150,z,27,3,6,z,1,0.3956688,None,6,3,27,3,,,,,69.3154169,,69.3043013,69.3154169,70.3159127,70.3159127,70.3159127,70.3159127,70.3159127,71.3157408,71.3157408,71.7198555,z,1,0.3956688,None,,,,,142662,1,2024-10-17_21h23.34.089,untitled,2024.2.1post4,61.34239238,2024-10-17 21h23.39.257599 +0530
-50,x,28,0,7,x,1,0.3357365,None,7,0,28,0,,,,,71.7321618,,71.7203903,71.7321618,72.7318264,72.7318264,72.7318264,72.7318264,72.7318264,73.7319567,73.7319567,74.0702577,x,1,0.3357365,None,,,,,142662,1,2024-10-17_21h23.34.089,untitled,2024.2.1post4,61.34239238,2024-10-17 21h23.39.257599 +0530
150,y,29,1,7,v,0,0.3967129,None,7,1,29,1,,,,,74.0810242,,74.0708435,74.0810242,75.0815037,75.0815037,75.0815037,75.0815037,75.0815037,76.0825535,76.0825535,76.4842842,v,0,0.3967129,None,,,,,142662,1,2024-10-17_21h23.34.089,untitled,2024.2.1post4,61.34239238,2024-10-17 21h23.39.257599 +0530
50,c,30,2,7,c,1,0.3884192,None,7,2,30,2,,,,,76.4983018,,76.4845423,76.4983018,77.4980347,77.4980347,77.4980347,77.4980347,77.4980347,78.4991442,78.4991442,78.9059332,c,1,0.3884192,None,,,,,142662,1,2024-10-17_21h23.34.089,untitled,2024.2.1post4,61.34239238,2024-10-17 21h23.39.257599 +0530
-150,z,31,3,7,z,1,0.3102162,None,7,3,31,3,,,,,78.915661,,78.9064177,78.915661,79.915574,79.915574,79.915574,79.915574,79.915574,80.9155342,80.9155342,81.2357083,z,1,0.3102162,None,,,,,142662,1,2024-10-17_21h23.34.089,untitled,2024.2.1post4,61.34239238,2024-10-17 21h23.39.257599 +0530
-50,x,32,0,8,x,1,0.2398813,None,8,0,32,0,,,,,81.2485011,,81.2360461,81.2485011,82.2479827,82.2479827,82.2479827,82.2479827,82.2479827,83.2484397,83.2484397,83.5035216,x,1,0.2398813,None,,,,,142662,1,2024-10-17_21h23.34.089,untitled,2024.2.1post4,61.34239238,2024-10-17 21h23.39.257599 +0530
150,y,33,1,8,v,0,0.4900684,None,8,1,33,1,,,,,83.5163922,,83.5040097,83.5163922,84.5145709,84.5145709,84.5145709,84.5145709,84.5145709,85.5154334,85.5154334,86.0197056,v,0,0.4900684,None,,,,,142662,1,2024-10-17_21h23.34.089,untitled,2024.2.1post4,61.34239238,2024-10-17 21h23.39.257599 +0530
50,c,34,2,8,c,1,0.4009559,None,8,2,34,2,,,,,86.031411,,86.0202922,86.031411,87.0311774,87.0311774,87.0311774,87.0311774,87.0311774,88.0324139,88.0324139,88.4365017,c,1,0.4009559,None,,,,,142662,1,2024-10-17_21h23.34.089,untitled,2024.2.1post4,61.34239238,2024-10-17 21h23.39.257599 +0530
-150,z,35,3,8,z,1,0.3258123,None,8,3,35,3,,,,,88.4483545,,88.4368424,88.4483545,89.4487937,89.4487937,89.4487937,89.4487937,89.4487937,90.448435,90.448435,90.7876728,z,1,0.3258123,None,,,,,142662,1,2024-10-17_21h23.34.089,untitled,2024.2.1post4,61.34239238,2024-10-17 21h23.39.257599 +0530
-50,x,36,0,9,x,1,0.297004,None,9,0,36,0,,,,,90.7982307,,90.7879832,90.7982307,91.7990622,91.7990622,91.7990622,91.7990622,91.7990622,92.7983939,92.7983939,93.1040355,x,1,0.297004,None,,,,,142662,1,2024-10-17_21h23.34.089,untitled,2024.2.1post4,61.34239238,2024-10-17 21h23.39.257599 +0530
150,y,37,1,9,v,0,0.3248446,None,9,1,37,1,,,,,93.1159196,,93.1044524,93.1159196,94.1147302,94.1147302,94.1147302,94.1147302,94.1147302,95.114755,95.114755,95.4522401,v,0,0.3248446,None,,,,,142662,1,2024-10-17_21h23.34.089,untitled,2024.2.1post4,61.34239238,2024-10-17 21h23.39.257599 +0530
50,c,38,2,9,c,1,0.4837474,None,9,2,38,2,,,,,95.46516,,95.4525601,95.46516,96.4646688,96.4646688,96.4646688,96.4646688,96.4646688,97.4643608,97.4643608,97.952372,c,1,0.4837474,None,,,,,142662,1,2024-10-17_21h23.34.089,untitled,2024.2.1post4,61.34239238,2024-10-17 21h23.39.257599 +0530
-150,z,39,3,9,z,1,0.2572371,None,9,3,39,3,,,,,97.9646478,,97.9526936,97.9646478,98.9641661,98.9641661,98.9641661,98.9641661,98.9641661,99.9656112,99.9656112,100.2349108,z,1,0.2572371,None,,,,,142662,1,2024-10-17_21h23.34.089,untitled,2024.2.1post4,61.34239238,2024-10-17 21h23.39.257599 +0530
-50,x,40,0,10,x,1,0.2577774,None,10,0,40,0,,,,,100.2484329,,100.2352299,100.2484329,101.2476826,101.2476826,101.2476826,101.2476826,101.2476826,102.2482485,102.2482485,102.5178569,x,1,0.2577774,None,,,,,142662,1,2024-10-17_21h23.34.089,untitled,2024.2.1post4,61.34239238,2024-10-17 21h23.39.257599 +0530
150,y,41,1,10,v,0,0.2648433,None,10,1,41,1,,,,,102.5318689,,102.5181213,102.5318689,103.5325062,103.5325062,103.5325062,103.5325062,103.5325062,104.5313361,104.5313361,104.8012452,v,0,0.2648433,None,,,,,142662,1,2024-10-17_21h23.34.089,untitled,2024.2.1post4,61.34239238,2024-10-17 21h23.39.257599 +0530
50,c,42,2,10,x,0,0.3625849,None,10,2,42,2,,,,,104.8149939,,104.8015214,104.8149939,105.798475,105.798475,105.798475,105.798475,105.8144738,106.8150286,106.8150286,107.1860602,x,0,0.3625849,None,,,,,142662,1,2024-10-17_21h23.34.089,untitled,2024.2.1post4,61.34239238,2024-10-17 21h23.39.257599 +0530
-150,z,43,3,10,z,1,0.3785777,None,10,3,43,3,,,,,107.1988455,,107.1867106,107.1988455,108.1971902,108.1971902,108.1971902,108.1971902,108.1971902,109.1974506,109.1974506,109.5861844,z,1,0.3785777,None,,,,,142662,1,2024-10-17_21h23.34.089,untitled,2024.2.1post4,61.34239238,2024-10-17 21h23.39.257599 +0530
-50,x,44,0,11,x,1,0.2313474,None,11,0,44,0,,,,,109.5987186,,109.5865027,109.5987186,110.5980305,110.5980305,110.5980305,110.5980305,110.5980305,111.5981506,111.5981506,111.8375598,x,1,0.2313474,None,,,,,142662,1,2024-10-17_21h23.34.089,untitled,2024.2.1post4,61.34239238,2024-10-17 21h23.39.257599 +0530
150,y,45,1,11,v,0,0.3327196,None,11,1,45,1,,,,,111.848506,,111.8380143,111.848506,112.8488013,112.8488013,112.8488013,112.8488013,112.8488013,113.8474156,113.8474156,114.1848486,v,0,0.3327196,None,,,,,142662,1,2024-10-17_21h23.34.089,untitled,2024.2.1post4,61.34239238,2024-10-17 21h23.39.257599 +0530
50,c,46,2,11,c,1,0.346123,None,11,2,46,2,,,,,114.1976935,,114.1851429,114.1976935,115.1974572,115.1974572,115.1974572,115.1974572,115.1974572,116.1974987,116.1974987,116.5528565,c,1,0.346123,None,,,,,142662,1,2024-10-17_21h23.34.089,untitled,2024.2.1post4,61.34239238,2024-10-17 21h23.39.257599 +0530
-150,z,47,3,11,z,1,0.3388633,None,11,3,47,3,,,,,116.5648747,,116.5532036,116.5648747,117.5650688,117.5650688,117.5650688,117.5650688,117.5650688,118.5644719,118.5644719,118.9191099,z,1,0.3388633,None,,,,,142662,1,2024-10-17_21h23.34.089,untitled,2024.2.1post4,61.34239238,2024-10-17 21h23.39.257599 +0530
-50,x,48,0,12,x,1,0.223079,None,12,0,48,0,,,,,118.9313287,,118.9194967,118.9313287,119.9312785,119.9312785,119.9312785,119.9312785,119.9312785,120.9305477,120.9305477,121.1698654,x,1,0.223079,None,,,,,142662,1,2024-10-17_21h23.34.089,untitled,2024.2.1post4,61.34239238,2024-10-17 21h23.39.257599 +0530
150,y,49,1,12,v,0,0.1859185,None,12,1,49,1,,,,,121.1818063,,121.170192,121.1818063,122.1797395,122.1797395,122.1797395,122.1797395,122.1964616,123.1813475,123.1813475,123.3692926,v,0,0.1859185,None,,,,,142662,1,2024-10-17_21h23.34.089,untitled,2024.2.1post4,61.34239238,2024-10-17 21h23.39.257599 +0530
50,c,50,2,12,c,1,0.4154939,None,12,2,50,2,,,,,123.3824423,,123.3698518,123.3824423,124.3811518,124.3811518,124.3811518,124.3811518,124.3811518,125.3818719,125.3818719,125.8013073,c,1,0.4154939,None,,,,,142662,1,2024-10-17_21h23.34.089,untitled,2024.2.1post4,61.34239238,2024-10-17 21h23.39.257599 +0530
-150,z,51,3,12,z,1,0.3845811,None,12,3,51,3,,,,,125.8142882,,125.8016022,125.8142882,126.8144323,126.8144323,126.8144323,126.8144323,126.8144323,127.8146646,127.8146646,128.2032787,z,1,0.3845811,None,,,,,142662,1,2024-10-17_21h23.34.089,untitled,2024.2.1post4,61.34239238,2024-10-17 21h23.39.257599 +0530
-50,x,52,0,13,x,1,0.3712616,None,13,0,52,0,,,,,128.2152865,,128.2036445,128.2152865,129.2149276,129.2149276,129.2149276,129.2149276,129.2149276,130.2140402,130.2140402,130.5872521,x,1,0.3712616,None,,,,,142662,1,2024-10-17_21h23.34.089,untitled,2024.2.1post4,61.34239238,2024-10-17 21h23.39.257599 +0530
150,y,53,1,13,v,0,0.3594462,None,13,1,53,1,,,,,130.5991511,,130.5876447,130.5991511,131.5976745,131.5976745,131.5976745,131.5976745,131.5976745,132.5966967,132.5966967,132.9663204,v,0,0.3594462,None,,,,,142662,1,2024-10-17_21h23.34.089,untitled,2024.2.1post4,61.34239238,2024-10-17 21h23.39.257599 +0530
50,c,54,2,13,c,1,0.3861128,None,13,2,54,2,,,,,132.9814201,,132.9666714,132.9814201,133.964728,133.964728,133.964728,133.964728,133.9814893,134.9807801,134.9807801,135.3697835,c,1,0.3861128,None,,,,,142662,1,2024-10-17_21h23.34.089,untitled,2024.2.1post4,61.34239238,2024-10-17 21h23.39.257599 +0530
-150,z,55,3,13,z,1,0.3229113,None,13,3,55,3,,,,,135.3816488,,135.370214,135.3816488,136.3804363,136.3804363,136.3804363,136.3804363,136.3804363,137.3812705,137.3812705,137.7192594,z,1,0.3229113,None,,,,,142662,1,2024-10-17_21h23.34.089,untitled,2024.2.1post4,61.34239238,2024-10-17 21h23.39.257599 +0530
-50,x,56,0,14,x,1,0.260013,None,14,0,56,0,,,,,137.7319075,,137.7196444,137.7319075,138.7308785,138.7308785,138.7308785,138.7308785,138.7308785,139.7305953,139.7305953,140.0005951,x,1,0.260013,None,,,,,142662,1,2024-10-17_21h23.34.089,untitled,2024.2.1post4,61.34239238,2024-10-17 21h23.39.257599 +0530
150,y,57,1,14,v,0,0.3401334,None,14,1,57,1,,,,,140.0141264,,140.0009289,140.0141264,141.0147699,141.0147699,141.0147699,141.0147699,141.0147699,142.0144629,142.0144629,142.3687911,v,0,0.3401334,None,,,,,142662,1,2024-10-17_21h23.34.089,untitled,2024.2.1post4,61.34239238,2024-10-17 21h23.39.257599 +0530
50,c,58,2,14,c,1,0.2773773,None,14,2,58,2,,,,,142.3817362,,142.3693542,142.3817362,143.3808622,143.3808622,143.3808622,143.3808622,143.3808622,144.3812216,144.3812216,144.6668857,c,1,0.2773773,None,,,,,142662,1,2024-10-17_21h23.34.089,untitled,2024.2.1post4,61.34239238,2024-10-17 21h23.39.257599 +0530
-150,z,59,3,14,z,1,0.3212927,None,14,3,59,3,,,,,144.68065,,144.6671684,144.68065,145.6800172,145.6800172,145.6800172,145.6800172,145.6800172,146.680577,146.680577,147.0164696,z,1,0.3212927,None,,,,,142662,1,2024-10-17_21h23.34.089,untitled,2024.2.1post4,61.34239238,2024-10-17 21h23.39.257599 +0530
-50,x,60,0,15,x,1,0.2537603,None,15,0,60,0,,,,,147.0307788,,147.0167211,147.0307788,148.0305814,148.0305814,148.0305814,148.0305814,148.0305814,149.0301761,149.0301761,149.2999279,x,1,0.2537603,None,,,,,142662,1,2024-10-17_21h23.34.089,untitled,2024.2.1post4,61.34239238,2024-10-17 21h23.39.257599 +0530
150,y,61,1,15,v,0,0.4678565,None,15,1,61,1,,,,,149.3139954,,149.3002203,149.3139954,150.312821,150.312821,150.312821,150.312821,150.3302591,151.3132129,151.3132129,151.7843075,v,0,0.4678565,None,,,,,142662,1,2024-10-17_21h23.34.089,untitled,2024.2.1post4,61.34239238,2024-10-17 21h23.39.257599 +0530
50,c,62,2,15,x,0,0.4272078,None,15,2,62,2,,,,,151.7976435,,151.784559,151.7976435,152.7972816,152.7972816,152.7972816,152.7972816,152.7972816,153.7978071,153.7978071,154.2329318,x,0,0.4272078,None,,,,,142662,1,2024-10-17_21h23.34.089,untitled,2024.2.1post4,61.34239238,2024-10-17 21h23.39.257599 +0530
-150,z,63,3,15,z,1,0.3935074,None,15,3,63,3,,,,,154.2470673,,154.2332298,154.2470673,155.2474139,155.2474139,155.2474139,155.2474139,155.2474139,156.2475659,156.2475659,156.651216,z,1,0.3935074,None,,,,,142662,1,2024-10-17_21h23.34.089,untitled,2024.2.1post4,61.34239238,2024-10-17 21h23.39.257599 +0530
-50,x,64,0,16,x,1,0.303471,None,16,0,64,0,,,,,156.6643696,,156.6517412,156.6643696,157.6637743,157.6637743,157.6637743,157.6637743,157.6637743,158.6635851,158.6635851,158.9842649,x,1,0.303471,None,,,,,142662,1,2024-10-17_21h23.34.089,untitled,2024.2.1post4,61.34239238,2024-10-17 21h23.39.257599 +0530
150,y,65,1,16,v,0,0.3301654,None,16,1,65,1,,,,,158.9972788,,158.9846079,158.9972788,159.9982711,159.9982711,159.9982711,159.9982711,159.9982711,160.9967201,160.9967201,161.3353219,v,0,0.3301654,None,,,,,142662,1,2024-10-17_21h23.34.089,untitled,2024.2.1post4,61.34239238,2024-10-17 21h23.39.257599 +0530
50,c,66,2,16,c,1,0.4875359,None,16,2,66,2,,,,,161.3477155,,161.3359376,161.3477155,162.3480001,162.3480001,162.3480001,162.3480001,162.3480001,163.3472762,163.3472762,163.8488977,c,1,0.4875359,None,,,,,142662,1,2024-10-17_21h23.34.089,untitled,2024.2.1post4,61.34239238,2024-10-17 21h23.39.257599 +0530
-150,z,67,3,16,z,1,0.3916263,None,16,3,67,3,,,,,163.8634501,,163.8491307,163.8634501,164.8651162,164.8651162,164.8651162,164.8651162,164.8651162,165.8635804,165.8635804,166.2676399,z,1,0.3916263,None,,,,,142662,1,2024-10-17_21h23.34.089,untitled,2024.2.1post4,61.34239238,2024-10-17 21h23.39.257599 +0530
-50,x,68,0,17,x,1,1.6192387,None,17,0,68,0,,,,,166.2799633,,166.2680073,166.2799633,167.2805968,167.2805968,167.2805968,167.2805968,167.2805968,168.2810131,168.2810131,169.90315,x,1,1.6192387,None,,,,,142662,1,2024-10-17_21h23.34.089,untitled,2024.2.1post4,61.34239238,2024-10-17 21h23.39.257599 +0530
150,y,69,1,17,v,0,0.7151192,None,17,1,69,1,,,,,169.9142916,,169.9034808,169.9142916,170.9138917,170.9138917,170.9138917,170.9138917,170.9138917,171.9141038,171.9141038,172.6335432,v,0,0.7151192,None,,,,,142662,1,2024-10-17_21h23.34.089,untitled,2024.2.1post4,61.34239238,2024-10-17 21h23.39.257599 +0530
50,c,70,2,17,c,1,0.3321146,None,17,2,70,2,,,,,172.6473716,,172.6338852,172.6473716,173.6470798,173.6470798,173.6470798,173.6470798,173.6470798,174.6468342,174.6468342,174.9865524,c,1,0.3321146,None,,,,,142662,1,2024-10-17_21h23.34.089,untitled,2024.2.1post4,61.34239238,2024-10-17 21h23.39.257599 +0530
-150,z,71,3,17,z,1,0.367828,None,17,3,71,3,,,,,174.9976966,,174.9871389,174.9976966,175.9964226,175.9964226,175.9964226,175.9964226,175.9964226,176.997762,176.997762,177.3692389,z,1,0.367828,None,,,,,142662,1,2024-10-17_21h23.34.089,untitled,2024.2.1post4,61.34239238,2024-10-17 21h23.39.257599 +0530
-50,x,72,0,18,x,1,0.643878,None,18,0,72,0,,,,,177.3811439,,177.3697837,177.3811439,178.3794723,178.3794723,178.3794723,178.3794723,178.3967946,179.3803164,179.3803164,180.0346486,x,1,0.643878,None,,,,,142662,1,2024-10-17_21h23.34.089,untitled,2024.2.1post4,61.34239238,2024-10-17 21h23.39.257599 +0530
150,y,73,1,18,v,0,0.2683311,None,18,1,73,1,,,,,180.0469781,,180.0352576,180.0469781,181.0473832,181.0473832,181.0473832,181.0473832,181.0473832,182.0463774,182.0463774,182.318028,v,0,0.2683311,None,,,,,142662,1,2024-10-17_21h23.34.089,untitled,2024.2.1post4,61.34239238,2024-10-17 21h23.39.257599 +0530
50,c,74,2,18,c,1,0.2831909,None,18,2,74,2,,,,,182.3290858,,182.3183611,182.3290858,183.3298039,183.3298039,183.3298039,183.3298039,183.3298039,184.3297573,184.3297573,184.6183914,c,1,0.2831909,None,,,,,142662,1,2024-10-17_21h23.34.089,untitled,2024.2.1post4,61.34239238,2024-10-17 21h23.39.257599 +0530
-150,z,75,3,18,z,1,0.3122635,None,18,3,75,3,,,,,184.6309594,,184.6190433,184.6309594,185.6324044,185.6324044,185.6324044,185.6324044,185.6324044,186.6298253,186.6298253,186.9501454,z,1,0.3122635,None,,,,,142662,1,2024-10-17_21h23.34.089,untitled,2024.2.1post4,61.34239238,2024-10-17 21h23.39.257599 +0530
-50,x,76,0,19,x,1,0.2022139,None,19,0,76,0,,,,,186.9638115,,186.9504288,186.9638115,187.9640378,187.9640378,187.9640378,187.9640378,187.9640378,188.9635493,188.9635493,189.1679288,x,1,0.2022139,None,,,,,142662,1,2024-10-17_21h23.34.089,untitled,2024.2.1post4,61.34239238,2024-10-17 21h23.39.257599 +0530
150,y,77,1,19,v,0,0.3043095,None,19,1,77,1,,,,,189.1803154,,189.1682451,189.1803154,190.1805712,190.1805712,190.1805712,190.1805712,190.1805712,191.1804628,191.1804628,191.5023393,v,0,0.3043095,None,,,,,142662,1,2024-10-17_21h23.34.089,untitled,2024.2.1post4,61.34239238,2024-10-17 21h23.39.257599 +0530
50,c,78,2,19,x,0,0.3912133,None,19,2,78,2,,,,,191.5141943,,191.5027285,191.5141943,192.5132569,192.5132569,192.5132569,192.5132569,192.5132569,193.513344,193.513344,193.9160727,x,0,0.3912133,None,,,,,142662,1,2024-10-17_21h23.34.089,untitled,2024.2.1post4,61.34239238,2024-10-17 21h23.39.257599 +0530
-150,z,79,3,19,z,1,0.3443082,None,19,3,79,3,,,,,193.9301256,,193.9163392,193.9301256,194.9294621,194.9294621,194.9294621,194.9294621,194.9294621,195.9294946,195.9294946,196.2841784,z,1,0.3443082,None,,,,,142662,1,2024-10-17_21h23.34.089,untitled,2024.2.1post4,61.34239238,2024-10-17 21h23.39.257599 +0530
-50,x,80,0,20,x,1,0.2972471,None,20,0,80,0,,,,,196.2972897,,196.2845365,196.2972897,197.2959835,197.2959835,197.2959835,197.2959835,197.2959835,198.2950783,198.2950783,198.6000899,x,1,0.2972471,None,,,,,142662,1,2024-10-17_21h23.34.089,untitled,2024.2.1post4,61.34239238,2024-10-17 21h23.39.257599 +0530
150,y,81,1,20,v,0,0.3379476,None,20,1,81,1,,,,,198.6131826,,198.6003941,198.6131826,199.6134914,199.6134914,199.6134914,199.6134914,199.6134914,200.6128847,200.6128847,200.9528779,v,0,0.3379476,None,,,,,142662,1,2024-10-17_21h23.34.089,untitled,2024.2.1post4,61.34239238,2024-10-17 21h23.39.257599 +0530
50,c,82,2,20,c,1,0.4519321,None,20,2,82,2,,,,,200.9640486,,200.9532713,200.9640486,201.9640028,201.9640028,201.9640028,201.9640028,201.9640028,202.9636901,202.9636901,203.4203502,c,1,0.4519321,None,,,,,142662,1,2024-10-17_21h23.34.089,untitled,2024.2.1post4,61.34239238,2024-10-17 21h23.39.257599 +0530
-150,z,83,3,20,z,1,0.3327627,None,20,3,83,3,,,,,203.4306332,,203.4208669,203.4306332,204.4295447,204.4295447,204.4295447,204.4295447,204.4295447,205.4294258,205.4294258,205.7696262,z,1,0.3327627,None,,,,,142662,1,2024-10-17_21h23.34.089,untitled,2024.2.1post4,61.34239238,2024-10-17 21h23.39.257599 +0530
-50,x,84,0,21,x,1,0.2591766,None,21,0,84,0,,,,,205.7805385,,205.7700438,205.7805385,206.780521,206.780521,206.780521,206.780521,206.780521,207.7792578,207.7792578,208.0524309,x,1,0.2591766,None,,,,,142662,1,2024-10-17_21h23.34.089,untitled,2024.2.1post4,61.34239238,2024-10-17 21h23.39.257599 +0530
150,y,85,1,21,v,0,0.2980805,None,21,1,85,1,,,,,208.0643027,,208.0528535,208.0643027,209.0631822,209.0631822,209.0631822,209.0631822,209.0631822,210.0633009,210.0633009,210.3658813,v,0,0.2980805,None,,,,,142662,1,2024-10-17_21h23.34.089,untitled,2024.2.1post4,61.34239238,2024-10-17 21h23.39.257599 +0530
50,c,86,2,21,c,1,0.5550478,None,21,2,86,2,,,,,210.3793022,,210.3661715,210.3793022,211.3801009,211.3801009,211.3801009,211.3801009,211.3801009,212.3791637,212.3791637,212.9493742,c,1,0.5550478,None,,,,,142662,1,2024-10-17_21h23.34.089,untitled,2024.2.1post4,61.34239238,2024-10-17 21h23.39.257599 +0530
-150,z,87,3,21,z,1,0.6453528,None,21,3,87,3,,,,,212.9628594,,212.949729,212.9628594,213.9640707,213.9640707,213.9640707,213.9640707,213.9640707,214.9631089,214.9631089,215.6177645,z,1,0.6453528,None,,,,,142662,1,2024-10-17_21h23.34.089,untitled,2024.2.1post4,61.34239238,2024-10-17 21h23.39.257599 +0530
-50,x,88,0,22,x,1,1.0644147,None,22,0,88,0,,,,,215.630454,,215.6181165,215.630454,216.6299954,216.6299954,216.6299954,216.6299954,216.6299954,217.6298507,217.6298507,218.7007993,x,1,1.0644147,None,,,,,142662,1,2024-10-17_21h23.34.089,untitled,2024.2.1post4,61.34239238,2024-10-17 21h23.39.257599 +0530
150,y,89,1,22,c,0,0.990293,None,22,1,89,1,,,,,218.7140472,,218.7012653,218.7140472,219.7132464,219.7132464,219.7132464,219.7132464,219.7132464,220.7136617,220.7136617,221.7176789,c,0,0.990293,None,,,,,142662,1,2024-10-17_21h23.34.089,untitled,2024.2.1post4,61.34239238,2024-10-17 21h23.39.257599 +0530
50,c,90,2,22,c,1,0.6205987,None,22,2,90,2,,,,,221.7304833,,221.718249,221.7304833,222.7294691,222.7294691,222.7294691,222.7294691,222.7294691,223.7303895,223.7303895,224.367109,c,1,0.6205987,None,,,,,142662,1,2024-10-17_21h23.34.089,untitled,2024.2.1post4,61.34239238,2024-10-17 21h23.39.257599 +0530
-150,z,91,3,22,z,1,0.4031922,None,22,3,91,3,,,,,224.3796711,,224.3674482,224.3796711,225.3793453,225.3793453,225.3793453,225.3793453,225.3793453,226.3793733,226.3793733,226.7991295,z,1,0.4031922,None,,,,,142662,1,2024-10-17_21h23.34.089,untitled,2024.2.1post4,61.34239238,2024-10-17 21h23.39.257599 +0530
-50,x,92,0,23,x,1,0.6626173,None,23,0,92,0,,,,,226.8130131,,226.7994277,226.8130131,227.8129997,227.8129997,227.8129997,227.8129997,227.8129997,228.8140069,228.8140069,229.4847641,x,1,0.6626173,None,,,,,142662,1,2024-10-17_21h23.34.089,untitled,2024.2.1post4,61.34239238,2024-10-17 21h23.39.257599 +0530
150,y,93,1,23,v,0,0.683744,None,23,1,93,1,,,,,229.4966495,,229.4851125,229.4966495,230.4975617,230.4975617,230.4975617,230.4975617,230.4975617,231.4955569,231.4955569,232.1828533,v,0,0.683744,None,,,,,142662,1,2024-10-17_21h23.34.089,untitled,2024.2.1post4,61.34239238,2024-10-17 21h23.39.257599 +0530
50,c,94,2,23,c,1,0.611308,None,23,2,94,2,,,,,232.1962228,,232.1830953,232.1962228,233.1952222,233.1952222,233.1952222,233.1952222,233.1952222,234.1958655,234.1958655,234.8150867,c,1,0.611308,None,,,,,142662,1,2024-10-17_21h23.34.089,untitled,2024.2.1post4,61.34239238,2024-10-17 21h23.39.257599 +0530
-150,z,95,3,23,z,1,0.3661914,None,23,3,95,3,,,,,234.8300184,,234.8153405,234.8300184,235.8295652,235.8295652,235.8295652,235.8295652,235.8295652,236.8291264,236.8291264,237.2015677,z,1,0.3661914,None,,,,,142662,1,2024-10-17_21h23.34.089,untitled,2024.2.1post4,61.34239238,2024-10-17 21h23.39.257599 +0530
-50,x,96,0,24,x,1,0.2660711,None,24,0,96,0,,,,,237.2127273,,237.2019436,237.2127273,238.2130109,238.2130109,238.2130109,238.2130109,238.2130109,239.2124439,239.2124439,239.4834186,x,1,0.2660711,None,,,,,142662,1,2024-10-17_21h23.34.089,untitled,2024.2.1post4,61.34239238,2024-10-17 21h23.39.257599 +0530
150,y,97,1,24,v,0,0.3343411,None,24,1,97,1,,,,,239.4970253,,239.4837224,239.4970253,240.4967097,240.4967097,240.4967097,240.4967097,240.4967097,241.4967921,241.4967921,241.8327865,v,0,0.3343411,None,,,,,142662,1,2024-10-17_21h23.34.089,untitled,2024.2.1post4,61.34239238,2024-10-17 21h23.39.257599 +0530
50,c,98,2,24,c,1,0.2980981,None,24,2,98,2,,,,,241.8467133,,241.8330304,241.8467133,242.8459763,242.8459763,242.8459763,242.8459763,242.8459763,243.8456608,243.8456608,244.1516313,c,1,0.2980981,None,,,,,142662,1,2024-10-17_21h23.34.089,untitled,2024.2.1post4,61.34239238,2024-10-17 21h23.39.257599 +0530
-150,z,99,3,24,z,1,0.3306771,None,24,3,99,3,,,,,244.1631509,,244.1519816,244.1631509,245.1630778,245.1630778,245.1630778,245.1630778,245.1630778,246.1631627,246.1631627,246.5018257,z,1,0.3306771,None,,,,,142662,1,2024-10-17_21h23.34.089,untitled,2024.2.1post4,61.34239238,2024-10-17 21h23.39.257599 +0530
-50,x,100,0,25,x,1,0.3040438,None,25,0,100,0,,,,,246.5129425,,246.5023527,246.5129425,247.5129063,247.5129063,247.5129063,247.5129063,247.5129063,248.5131741,248.5131741,248.8333347,x,1,0.3040438,None,,,,,142662,1,2024-10-17_21h23.34.089,untitled,2024.2.1post4,61.34239238,2024-10-17 21h23.39.257599 +0530
150,y,101,1,25,v,0,0.3954515,None,25,1,101,1,,,,,248.8462024,,248.8336272,248.8462024,249.845728,249.845728,249.845728,249.845728,249.845728,250.8459656,250.8459656,251.2503298,v,0,0.3954515,None,,,,,142662,1,2024-10-17_21h23.34.089,untitled,2024.2.1post4,61.34239238,2024-10-17 21h23.39.257599 +0530
50,c,102,2,25,c,1,0.3242526,None,25,2,102,2,,,,,251.2627493,,251.2506561,251.2627493,252.2623086,252.2623086,252.2623086,252.2623086,252.2623086,253.2623675,253.2623675,253.6004705,c,1,0.3242526,None,,,,,142662,1,2024-10-17_21h23.34.089,untitled,2024.2.1post4,61.34239238,2024-10-17 21h23.39.257599 +0530
-150,z,103,3,25,z,1,0.4283425,None,25,3,103,3,,,,,253.6129833,,253.6008053,253.6129833,254.6135605,254.6135605,254.6135605,254.6135605,254.6135605,255.6125212,255.6125212,256.0487983,z,1,0.4283425,None,,,,,142662,1,2024-10-17_21h23.34.089,untitled,2024.2.1post4,61.34239238,2024-10-17 21h23.39.257599 +0530
-50,x,104,0,26,x,1,0.3702578,None,26,0,104,0,,,,,256.062519,,256.0490535,256.062519,257.0622861,257.0622861,257.0622861,257.0622861,257.0622861,258.0616619,258.0616619,258.4344715,x,1,0.3702578,None,,,,,142662,1,2024-10-17_21h23.34.089,untitled,2024.2.1post4,61.34239238,2024-10-17 21h23.39.257599 +0530
150,y,105,1,26,v,0,0.6197083,None,26,1,105,1,,,,,258.4460661,,258.4350398,258.4460661,259.4459921,259.4459921,259.4459921,259.4459921,259.4459921,260.4463189,260.4463189,261.0676477,v,0,0.6197083,None,,,,,142662,1,2024-10-17_21h23.34.089,untitled,2024.2.1post4,61.34239238,2024-10-17 21h23.39.257599 +0530
50,c,106,2,26,c,1,0.3096217,None,26,2,106,2,,,,,261.0792845,,261.0680318,261.0792845,262.0787968,262.0787968,262.0787968,262.0787968,262.0787968,263.0789167,263.0789167,263.4010038,c,1,0.3096217,None,,,,,142662,1,2024-10-17_21h23.34.089,untitled,2024.2.1post4,61.34239238,2024-10-17 21h23.39.257599 +0530
-150,z,107,3,26,z,1,0.3694124,None,26,3,107,3,,,,,263.4128565,,263.4013701,263.4128565,264.4121953,264.4121953,264.4121953,264.4121953,264.4121953,265.4122278,265.4122278,265.7854833,z,1,0.3694124,None,,,,,142662,1,2024-10-17_21h23.34.089,untitled,2024.2.1post4,61.34239238,2024-10-17 21h23.39.257599 +0530
-50,x,108,0,27,x,1,2.05588,None,27,0,108,0,,,,,265.7956896,,265.7858652,265.7956896,266.7953165,266.7953165,266.7953165,266.7953165,266.7953165,267.7958024,267.7958024,269.8654192,x,1,2.05588,None,,,,,142662,1,2024-10-17_21h23.34.089,untitled,2024.2.1post4,61.34239238,2024-10-17 21h23.39.257599 +0530
150,y,109,1,27,v,0,0.4786857,None,27,1,109,1,,,,,269.8795621,,269.8656899,269.8795621,270.8792878,270.8792878,270.8792878,270.8792878,270.8792878,271.8800791,271.8800791,272.3679128,v,0,0.4786857,None,,,,,142662,1,2024-10-17_21h23.34.089,untitled,2024.2.1post4,61.34239238,2024-10-17 21h23.39.257599 +0530
50,c,110,2,27,c,1,0.3652232,None,27,2,110,2,,,,,272.3797445,,272.3684411,272.3797445,273.378925,273.378925,273.378925,273.378925,273.378925,274.3782548,274.3782548,274.7524934,c,1,0.3652232,None,,,,,142662,1,2024-10-17_21h23.34.089,untitled,2024.2.1post4,61.34239238,2024-10-17 21h23.39.257599 +0530
-150,z,111,3,27,z,1,0.5025384,None,27,3,111,3,,,,,274.7624025,,274.7528828,274.7624025,275.7617158,275.7617158,275.7617158,275.7617158,275.7617158,276.7616704,276.7616704,277.2676575,z,1,0.5025384,None,,,,,142662,1,2024-10-17_21h23.34.089,untitled,2024.2.1post4,61.34239238,2024-10-17 21h23.39.257599 +0530
-50,x,112,0,28,x,1,0.3255026,None,28,0,112,0,,,,,277.2793002,,277.2681468,277.2793002,278.2793538,278.2793538,278.2793538,278.2793538,278.2793538,279.2791009,279.2791009,279.616189,x,1,0.3255026,None,,,,,142662,1,2024-10-17_21h23.34.089,untitled,2024.2.1post4,61.34239238,2024-10-17 21h23.39.257599 +0530
150,y,113,1,28,v,0,0.5375687,None,28,1,113,1,,,,,279.6298406,,279.6165228,279.6298406,280.6290019,280.6290019,280.6290019,280.6290019,280.6454302,281.629304,281.629304,282.182251,v,0,0.5375687,None,,,,,142662,1,2024-10-17_21h23.34.089,untitled,2024.2.1post4,61.34239238,2024-10-17 21h23.39.257599 +0530
50,c,114,2,28,c,1,0.3847992,None,28,2,114,2,,,,,282.1954223,,282.1825656,282.1954223,283.1950016,283.1950016,283.1950016,283.1950016,283.1950016,284.196226,284.196226,284.5832284,c,1,0.3847992,None,,,,,142662,1,2024-10-17_21h23.34.089,untitled,2024.2.1post4,61.34239238,2024-10-17 21h23.39.257599 +0530
-150,z,115,3,28,z,1,0.7578665,None,28,3,115,3,,,,,284.595304,,284.5835331,284.595304,285.5952098,285.5952098,285.5952098,285.5952098,285.5952098,286.5956778,286.5956778,287.3662349,z,1,0.7578665,None,,,,,142662,1,2024-10-17_21h23.34.089,untitled,2024.2.1post4,61.34239238,2024-10-17 21h23.39.257599 +0530
-50,x,116,0,29,x,1,0.8554986,None,29,0,116,0,,,,,287.3787745,,287.366693,287.3787745,288.3792765,288.3792765,288.3792765,288.3792765,288.3792765,289.379029,289.379029,290.2495962,x,1,0.8554986,None,,,,,142662,1,2024-10-17_21h23.34.089,untitled,2024.2.1post4,61.34239238,2024-10-17 21h23.39.257599 +0530
150,y,117,1,29,v,0,0.5443947,None,29,1,117,1,,,,,290.260978,,290.2500156,290.260978,291.2622568,291.2622568,291.2622568,291.2622568,291.2622568,292.2612939,292.2612939,292.8149536,v,0,0.5443947,None,,,,,142662,1,2024-10-17_21h23.34.089,untitled,2024.2.1post4,61.34239238,2024-10-17 21h23.39.257599 +0530
50,c,118,2,29,c,1,0.4707802,None,29,2,118,2,,,,,292.8280891,,292.8152343,292.8280891,293.8281591,293.8281591,293.8281591,293.8281591,293.8281591,294.8280334,294.8280334,295.3144515,c,1,0.4707802,None,,,,,142662,1,2024-10-17_21h23.34.089,untitled,2024.2.1post4,61.34239238,2024-10-17 21h23.39.257599 +0530
-150,z,119,3,29,z,1,0.3796903,None,29,3,119,3,,,,,295.3284285,,295.3148038,295.3284285,296.3292357,296.3292357,296.3292357,296.3292357,296.3292357,297.328423,297.328423,297.7173356,z,1,0.3796903,None,,,,,142662,1,2024-10-17_21h23.34.089,untitled,2024.2.1post4,61.34239238,2024-10-17 21h23.39.257599 +0530
-50,x,120,0,30,x,1,0.2763492,None,30,0,120,0,,,,,297.7291893,,297.7176806,297.7291893,298.7285976,298.7285976,298.7285976,298.7285976,298.7285976,299.7290293,299.7290293,300.0162841,x,1,0.2763492,None,,,,,142662,1,2024-10-17_21h23.34.089,untitled,2024.2.1post4,61.34239238,2024-10-17 21h23.39.257599 +0530
150,y,121,1,30,v,0,0.3416121,None,30,1,121,1,,,,,300.0298819,,300.0166248,300.0298819,301.0285065,301.0285065,301.0285065,301.0285065,301.0285065,302.0288601,302.0288601,302.3834744,v,0,0.3416121,None,,,,,142662,1,2024-10-17_21h23.34.089,untitled,2024.2.1post4,61.34239238,2024-10-17 21h23.39.257599 +0530
50,c,122,2,30,c,1,0.3442977,None,30,2,122,2,,,,,302.3955619,,302.3840291,302.3955619,303.3953084,303.3953084,303.3953084,303.3953084,303.3953084,304.3955111,304.3955111,304.7498956,c,1,0.3442977,None,,,,,142662,1,2024-10-17_21h23.34.089,untitled,2024.2.1post4,61.34239238,2024-10-17 21h23.39.257599 +0530
-150,z,123,3,30,z,1,0.9255979,None,30,3,123,3,,,,,304.7622643,,304.7504878,304.7622643,305.7615432,305.7615432,305.7615432,305.7615432,305.7775371,306.762402,306.762402,307.6999222,z,1,0.9255979,None,,,,,142662,1,2024-10-17_21h23.34.089,untitled,2024.2.1post4,61.34239238,2024-10-17 21h23.39.257599 +0530
-50,x,124,0,31,x,1,0.2775624,None,31,0,124,0,,,,,307.7120525,,307.7002595,307.7120525,308.7115851,308.7115851,308.7115851,308.7115851,308.7115851,309.7117326,309.7117326,309.9986232,x,1,0.2775624,None,,,,,142662,1,2024-10-17_21h23.34.089,untitled,2024.2.1post4,61.34239238,2024-10-17 21h23.39.257599 +0530
150,y,125,1,31,v,0,0.8216993,None,31,1,125,1,,,,,310.0122804,,309.9989147,310.0122804,311.0120392,311.0120392,311.0120392,311.0120392,311.0120392,312.0107593,312.0107593,312.8499281,v,0,0.8216993,None,,,,,142662,1,2024-10-17_21h23.34.089,untitled,2024.2.1post4,61.34239238,2024-10-17 21h23.39.257599 +0530
50,c,126,2,31,c,1,0.36591,None,31,2,126,2,,,,,312.8618319,,312.8502629,312.8618319,313.8615474,313.8615474,313.8615474,313.8615474,313.8615474,314.8614498,314.8614498,315.232197,c,1,0.36591,None,,,,,142662,1,2024-10-17_21h23.34.089,untitled,2024.2.1post4,61.34239238,2024-10-17 21h23.39.257599 +0530
-150,z,127,3,31,z,1,0.6878782,None,31,3,127,3,,,,,315.2448233,,315.2324752,315.2448233,316.243957,316.243957,316.243957,316.243957,316.243957,317.2454656,317.2454656,317.9502351,z,1,0.6878782,None,,,,,142662,1,2024-10-17_21h23.34.089,untitled,2024.2.1post4,61.34239238,2024-10-17 21h23.39.257599 +0530
-50,x,128,0,32,x,1,0.326399,None,32,0,128,0,,,,,317.96203,,317.9507678,317.96203,318.9620374,318.9620374,318.9620374,318.9620374,318.9620374,319.9606641,319.9606641,320.2999186,x,1,0.326399,None,,,,,142662,1,2024-10-17_21h23.34.089,untitled,2024.2.1post4,61.34239238,2024-10-17 21h23.39.257599 +0530
150,y,129,1,32,v,0,1.6260153,None,32,1,129,1,,,,,320.3113915,,320.3004951,320.3113915,321.3112811,321.3112811,321.3112811,321.3112811,321.3112811,322.3110628,322.3110628,323.9492265,v,0,1.6260153,None,,,,,142662,1,2024-10-17_21h23.34.089,untitled,2024.2.1post4,61.34239238,2024-10-17 21h23.39.257599 +0530
50,c,130,2,32,c,1,0.4227649,None,32,2,130,2,,,,,323.9619334,,323.9498063,323.9619334,324.9612852,324.9612852,324.9612852,324.9612852,324.9612852,325.9609687,325.9609687,326.3978646,c,1,0.4227649,None,,,,,142662,1,2024-10-17_21h23.34.089,untitled,2024.2.1post4,61.34239238,2024-10-17 21h23.39.257599 +0530
-150,z,131,3,32,z,1,0.357284,None,32,3,131,3,,,,,326.4122885,,326.3983507,326.4122885,327.4117104,327.4117104,327.4117104,327.4117104,327.4117104,328.4118182,328.4118182,328.7836026,z,1,0.357284,None,,,,,142662,1,2024-10-17_21h23.34.089,untitled,2024.2.1post4,61.34239238,2024-10-17 21h23.39.257599 +0530
-50,x,132,0,33,x,1,1.2498143,None,33,0,132,0,,,,,328.7955036,,328.7840427,328.7955036,329.7949761,329.7949761,329.7949761,329.7949761,329.7949761,330.7938247,330.7938247,332.0490867,x,1,1.2498143,None,,,,,142662,1,2024-10-17_21h23.34.089,untitled,2024.2.1post4,61.34239238,2024-10-17 21h23.39.257599 +0530
150,y,133,1,33,v,0,0.5961753,None,33,1,133,1,,,,,332.0614701,,332.0497678,332.0614701,333.0608316,333.0608316,333.0608316,333.0608316,333.0608316,334.0613212,334.0613212,334.6660357,v,0,0.5961753,None,,,,,142662,1,2024-10-17_21h23.34.089,untitled,2024.2.1post4,61.34239238,2024-10-17 21h23.39.257599 +0530
50,c,134,2,33,c,1,0.3396669,None,33,2,134,2,,,,,334.6787707,,334.6666136,334.6787707,335.6787037,335.6787037,335.6787037,335.6787037,335.6787037,336.6779237,336.6779237,337.0320936,c,1,0.3396669,None,,,,,142662,1,2024-10-17_21h23.34.089,untitled,2024.2.1post4,61.34239238,2024-10-17 21h23.39.257599 +0530
-150,z,135,3,33,z,1,0.0741447,None,33,3,135,3,,,,,337.0448719,,337.0326763,337.0448719,338.0448971,338.0448971,338.0448971,338.0448971,338.0448971,339.0450763,339.0450763,339.129908,z,1,0.0741447,None,,,,,142662,1,2024-10-17_21h23.34.089,untitled,2024.2.1post4,61.34239238,2024-10-17 21h23.39.257599 +0530
-50,x,136,0,34,x,1,0.280767,None,34,0,136,0,,,,,339.1443049,,339.1301601,339.1443049,340.1450926,340.1450926,340.1450926,340.1450926,340.1450926,341.1283019,341.1283019,341.4177762,x,1,0.280767,None,,,,,142662,1,2024-10-17_21h23.34.089,untitled,2024.2.1post4,61.34239238,2024-10-17 21h23.39.257599 +0530
150,y,137,1,34,v,0,0.5306411,None,34,1,137,1,,,,,341.4283693,,341.4182631,341.4283693,342.4278163,342.4278163,342.4278163,342.4278163,342.4278163,343.4274786,343.4274786,343.9649906,v,0,0.5306411,None,,,,,142662,1,2024-10-17_21h23.34.089,untitled,2024.2.1post4,61.34239238,2024-10-17 21h23.39.257599 +0530
50,c,138,2,34,c,1,0.4032915,None,34,2,138,2,,,,,343.9778185,,343.9653519,343.9778185,344.9770012,344.9770012,344.9770012,344.9770012,344.9770012,345.9773222,345.9773222,346.3838959,c,1,0.4032915,None,,,,,142662,1,2024-10-17_21h23.34.089,untitled,2024.2.1post4,61.34239238,2024-10-17 21h23.39.257599 +0530
-150,z,139,3,34,z,1,1.0248359,None,34,3,139,3,,,,,346.394836,,346.3842563,346.394836,347.3938842,347.3938842,347.3938842,347.3938842,347.3938842,348.3940148,348.3940148,349.431781,z,1,1.0248359,None,,,,,142662,1,2024-10-17_21h23.34.089,untitled,2024.2.1post4,61.34239238,2024-10-17 21h23.39.257599 +0530
-50,x,140,0,35,x,1,0.4101724,None,35,0,140,0,,,,,349.4448118,,349.4321244,349.4448118,350.4446453,350.4446453,350.4446453,350.4446453,350.4446453,351.4439816,351.4439816,351.8650101,x,1,0.4101724,None,,,,,142662,1,2024-10-17_21h23.34.089,untitled,2024.2.1post4,61.34239238,2024-10-17 21h23.39.257599 +0530
150,y,141,1,35,v,0,0.371342,None,35,1,141,1,,,,,351.8777544,,351.8653371,351.8777544,352.8771769,352.8771769,352.8771769,352.8771769,352.8771769,353.8775015,353.8775015,354.2654323,v,0,0.371342,None,,,,,142662,1,2024-10-17_21h23.34.089,untitled,2024.2.1post4,61.34239238,2024-10-17 21h23.39.257599 +0530
50,c,142,2,35,c,1,0.3637137,None,35,2,142,2,,,,,354.2769525,,354.2660144,354.2769525,355.2783617,355.2783617,355.2783617,355.2783617,355.2783617,356.2781503,356.2781503,356.6492693,c,1,0.3637137,None,,,,,142662,1,2024-10-17_21h23.34.089,untitled,2024.2.1post4,61.34239238,2024-10-17 21h23.39.257599 +0530
-150,z,143,3,35,z,1,0.5283843,None,35,3,143,3,,,,,356.6612638,,356.6496238,356.6612638,357.6611506,357.6611506,357.6611506,357.6611506,357.6611506,358.6609786,358.6609786,359.2007041,z,1,0.5283843,None,,,,,142662,1,2024-10-17_21h23.34.089,untitled,2024.2.1post4,61.34239238,2024-10-17 21h23.39.257599 +0530
-50,x,144,0,36,x,1,0.2008649,None,36,0,144,0,,,,,359.2110289,,359.20098,359.2110289,360.2122257,360.2122257,360.2122257,360.2122257,360.2122257,361.2110492,361.2110492,361.4159056,x,1,0.2008649,None,,,,,142662,1,2024-10-17_21h23.34.089,untitled,2024.2.1post4,61.34239238,2024-10-17 21h23.39.257599 +0530
150,y,145,1,36,v,0,0.4069574,None,36,1,145,1,,,,,361.428295,,361.4162405,361.428295,362.4269484,362.4269484,362.4269484,362.4269484,362.4269484,363.4281435,363.4281435,363.8491736,v,0,0.4069574,None,,,,,142662,1,2024-10-17_21h23.34.089,untitled,2024.2.1post4,61.34239238,2024-10-17 21h23.39.257599 +0530
50,c,146,2,36,c,1,0.7249504,None,36,2,146,2,,,,,363.8612002,,363.8495725,363.8612002,364.8613227,364.8613227,364.8613227,364.8613227,364.8613227,365.8612366,365.8612366,366.5985569,c,1,0.7249504,None,,,,,142662,1,2024-10-17_21h23.34.089,untitled,2024.2.1post4,61.34239238,2024-10-17 21h23.39.257599 +0530
-150,z,147,3,36,z,1,0.4103076,None,36,3,147,3,,,,,366.6112106,,366.5991446,366.6112106,367.6125602,367.6125602,367.6125602,367.6125602,367.6125602,368.6112513,368.6112513,369.0313348,z,1,0.4103076,None,,,,,142662,1,2024-10-17_21h23.34.089,untitled,2024.2.1post4,61.34239238,2024-10-17 21h23.39.257599 +0530
-50,x,148,0,37,x,1,0.2961009,None,37,0,148,0,,,,,369.0442121,,369.0316302,369.0442121,370.044716,370.044716,370.044716,370.044716,370.044716,371.0434039,371.0434039,371.3468356,x,1,0.2961009,None,,,,,142662,1,2024-10-17_21h23.34.089,untitled,2024.2.1post4,61.34239238,2024-10-17 21h23.39.257599 +0530
150,y,149,1,37,v,0,0.3982528,None,37,1,149,1,,,,,371.3607428,,371.3471381,371.3607428,372.3603802,372.3603802,372.3603802,372.3603802,372.3603802,373.3607782,373.3607782,373.763775,v,0,0.3982528,None,,,,,142662,1,2024-10-17_21h23.34.089,untitled,2024.2.1post4,61.34239238,2024-10-17 21h23.39.257599 +0530
50,c,150,2,37,c,1,0.3636202,None,37,2,150,2,,,,,373.7772378,,373.7640421,373.7772378,374.7772297,374.7772297,374.7772297,374.7772297,374.7772297,375.7774801,375.7774801,376.1487196,c,1,0.3636202,None,,,,,142662,1,2024-10-17_21h23.34.089,untitled,2024.2.1post4,61.34239238,2024-10-17 21h23.39.257599 +0530
-150,z,151,3,37,z,1,0.667267,None,37,3,151,3,,,,,376.1607207,,376.1492546,376.1607207,377.1608611,377.1608611,377.1608611,377.1608611,377.1608611,378.1607143,378.1607143,378.8324605,z,1,0.667267,None,,,,,142662,1,2024-10-17_21h23.34.089,untitled,2024.2.1post4,61.34239238,2024-10-17 21h23.39.257599 +0530
-50,x,152,0,38,x,1,0.9842815,None,38,0,152,0,,,,,378.8444673,,378.8328574,378.8444673,379.8438813,379.8438813,379.8438813,379.8438813,379.8438813,380.8439234,380.8439234,381.8358109,x,1,0.9842815,None,,,,,142662,1,2024-10-17_21h23.34.089,untitled,2024.2.1post4,61.34239238,2024-10-17 21h23.39.257599 +0530
150,y,153,1,38,v,0,0.7037027,None,38,1,153,1,,,,,381.8445704,,381.8362449,381.8445704,382.8436179,382.8436179,382.8436179,382.8436179,382.8436179,383.8444623,383.8444623,384.5657311,v,0,0.7037027,None,,,,,142662,1,2024-10-17_21h23.34.089,untitled,2024.2.1post4,61.34239238,2024-10-17 21h23.39.257599 +0530
50,c,154,2,38,c,1,0.3898467,None,38,2,154,2,,,,,384.5776662,,384.5660835,384.5776662,385.5775984,385.5775984,385.5775984,385.5775984,385.5775984,386.5771529,386.5771529,386.9795283,c,1,0.3898467,None,,,,,142662,1,2024-10-17_21h23.34.089,untitled,2024.2.1post4,61.34239238,2024-10-17 21h23.39.257599 +0530
-150,z,155,3,38,z,1,0.3496115,None,38,3,155,3,,,,,386.9937077,,386.9797727,386.9937077,387.9939712,387.9939712,387.9939712,387.9939712,387.9939712,388.9938084,388.9938084,389.3493452,z,1,0.3496115,None,,,,,142662,1,2024-10-17_21h23.34.089,untitled,2024.2.1post4,61.34239238,2024-10-17 21h23.39.257599 +0530
-50,x,156,0,39,x,1,0.2378837,None,39,0,156,0,,,,,389.3605927,,389.3496971,389.3605927,390.3604834,390.3604834,390.3604834,390.3604834,390.3604834,391.3605548,391.3605548,391.6148834,x,1,0.2378837,None,,,,,142662,1,2024-10-17_21h23.34.089,untitled,2024.2.1post4,61.34239238,2024-10-17 21h23.39.257599 +0530
150,y,157,1,39,v,0,0.6877144,None,39,1,157,1,,,,,391.6278053,,391.6152207,391.6278053,392.6279922,392.6279922,392.6279922,392.6279922,392.6279922,393.6266248,393.6266248,394.330278,v,0,0.6877144,None,,,,,142662,1,2024-10-17_21h23.34.089,untitled,2024.2.1post4,61.34239238,2024-10-17 21h23.39.257599 +0530
50,c,158,2,39,c,1,0.416276,None,39,2,158,2,,,,,394.3443839,,394.3306029,394.3443839,395.3438609,395.3438609,395.3438609,395.3438609,395.3438609,396.3431819,396.3431819,396.7659898,c,1,0.416276,None,,,,,142662,1,2024-10-17_21h23.34.089,untitled,2024.2.1post4,61.34239238,2024-10-17 21h23.39.257599 +0530
-150,z,159,3,39,z,1,2.3360461,None,39,3,159,3,,,,,396.7780869,,396.7663489,396.7780869,397.7779558,397.7779558,397.7779558,397.7779558,397.7779558,398.7766541,398.7766541,401.1159337,z,1,2.3360461,None,,,,,142662,1,2024-10-17_21h23.34.089,untitled,2024.2.1post4,61.34239238,2024-10-17 21h23.39.257599 +0530
-50,x,160,0,40,x,1,1.0954582,None,40,0,160,0,,,,,401.1277798,,401.1164851,401.1277798,402.1273118,402.1273118,402.1273118,402.1273118,402.1273118,403.1267525,403.1267525,404.2297987,x,1,1.0954582,None,,,,,142662,1,2024-10-17_21h23.34.089,untitled,2024.2.1post4,61.34239238,2024-10-17 21h23.39.257599 +0530
150,y,161,1,40,v,0,0.7129092,None,40,1,161,1,,,,,404.2432728,,404.2300287,404.2432728,405.2433085,405.2433085,405.2433085,405.2433085,405.2433085,406.242254,406.242254,406.9636069,v,0,0.7129092,None,,,,,142662,1,2024-10-17_21h23.34.089,untitled,2024.2.1post4,61.34239238,2024-10-17 21h23.39.257599 +0530
50,c,162,2,40,c,1,0.4660903,None,40,2,162,2,,,,,406.9767036,,406.9639098,406.9767036,407.9763739,407.9763739,407.9763739,407.9763739,407.9763739,408.9767066,408.9767066,409.4475009,c,1,0.4660903,None,,,,,142662,1,2024-10-17_21h23.34.089,untitled,2024.2.1post4,61.34239238,2024-10-17 21h23.39.257599 +0530
-150,z,163,3,40,z,1,0.6262285,None,40,3,163,3,,,,,409.4601932,,409.4478609,409.4601932,410.4602794,410.4602794,410.4602794,410.4602794,410.4602794,411.4613994,411.4613994,412.0988748,z,1,0.6262285,None,,,,,142662,1,2024-10-17_21h23.34.089,untitled,2024.2.1post4,61.34239238,2024-10-17 21h23.39.257599 +0530
-50,x,164,0,41,x,1,0.5585323,None,41,0,164,0,,,,,412.1100905,,412.0992048,412.1100905,413.1100424,413.1100424,413.1100424,413.1100424,413.1100424,414.1104,414.1104,414.6800933,x,1,0.5585323,None,,,,,142662,1,2024-10-17_21h23.34.089,untitled,2024.2.1post4,61.34239238,2024-10-17 21h23.39.257599 +0530
150,y,165,1,41,v,0,0.4053299,None,41,1,165,1,,,,,414.6931411,,414.6803778,414.6931411,415.6932726,415.6932726,415.6932726,415.6932726,415.6932726,416.6929854,416.6929854,417.1140905,v,0,0.4053299,None,,,,,142662,1,2024-10-17_21h23.34.089,untitled,2024.2.1post4,61.34239238,2024-10-17 21h23.39.257599 +0530
50,c,166,2,41,c,1,1.2500716,None,41,2,166,2,,,,,417.1266827,,417.1144556,417.1266827,418.1264202,418.1264202,418.1264202,418.1264202,418.1264202,419.1261558,419.1261558,420.3793055,c,1,1.2500716,None,,,,,142662,1,2024-10-17_21h23.34.089,untitled,2024.2.1post4,61.34239238,2024-10-17 21h23.39.257599 +0530
-150,z,167,3,41,z,1,0.9731143,None,41,3,167,3,,,,,420.3931984,,420.3795383,420.3931984,421.3930606,421.3930606,421.3930606,421.3930606,421.3930606,422.393676,422.393676,423.3798214,z,1,0.9731143,None,,,,,142662,1,2024-10-17_21h23.34.089,untitled,2024.2.1post4,61.34239238,2024-10-17 21h23.39.257599 +0530
-50,x,168,0,42,x,1,1.777233,None,42,0,168,0,,,,,423.3929175,,423.3801114,423.3929175,424.3930479,424.3930479,424.3930479,424.3930479,424.3930479,425.39328,425.39328,427.1778025,x,1,1.777233,None,,,,,142662,1,2024-10-17_21h23.34.089,untitled,2024.2.1post4,61.34239238,2024-10-17 21h23.39.257599 +0530
150,y,169,1,42,v,0,0.6048489,None,42,1,169,1,,,,,427.1928489,,427.1780471,427.1928489,428.1924515,428.1924515,428.1924515,428.1924515,428.1924515,429.1765001,429.1765001,429.7826407,v,0,0.6048489,None,,,,,142662,1,2024-10-17_21h23.34.089,untitled,2024.2.1post4,61.34239238,2024-10-17 21h23.39.257599 +0530
50,c,170,2,42,c,1,0.3468594,None,42,2,170,2,,,,,429.7935148,,429.7829178,429.7935148,430.7937878,430.7937878,430.7937878,430.7937878,430.7937878,431.7932119,431.7932119,432.1475433,c,1,0.3468594,None,,,,,142662,1,2024-10-17_21h23.34.089,untitled,2024.2.1post4,61.34239238,2024-10-17 21h23.39.257599 +0530
-150,z,171,3,42,z,1,0.6959169,None,42,3,171,3,,,,,432.1599149,,432.1481833,432.1599149,433.1608417,433.1608417,433.1608417,433.1608417,433.1608417,434.1603424,434.1603424,434.86522,z,1,0.6959169,None,,,,,142662,1,2024-10-17_21h23.34.089,untitled,2024.2.1post4,61.34239238,2024-10-17 21h23.39.257599 +0530
-50,x,172,0,43,x,1,0.3004788,None,43,0,172,0,,,,,434.8768573,,434.865724,434.8768573,435.8763217,435.8763217,435.8763217,435.8763217,435.8763217,436.8761952,436.8761952,437.1791439,x,1,0.3004788,None,,,,,142662,1,2024-10-17_21h23.34.089,untitled,2024.2.1post4,61.34239238,2024-10-17 21h23.39.257599 +0530
150,y,173,1,43,v,0,1.4916978,None,43,1,173,1,,,,,437.1924456,,437.1794726,437.1924456,438.1927035,438.1927035,438.1927035,438.1927035,438.1927035,439.1927008,439.1927008,440.6966409,v,0,1.4916978,None,,,,,142662,1,2024-10-17_21h23.34.089,untitled,2024.2.1post4,61.34239238,2024-10-17 21h23.39.257599 +0530
50,c,174,2,43,c,1,0.4563835,None,43,2,174,2,,,,,440.7105237,,440.6969369,440.7105237,441.709518,441.709518,441.709518,441.709518,441.709518,442.710192,442.710192,443.1814345,c,1,0.4563835,None,,,,,142662,1,2024-10-17_21h23.34.089,untitled,2024.2.1post4,61.34239238,2024-10-17 21h23.39.257599 +0530
-150,z,175,3,43,z,1,0.8309466,None,43,3,175,3,,,,,443.1933734,,443.1818803,443.1933734,444.1927468,444.1927468,444.1927468,444.1927468,444.1927468,445.1932465,445.1932465,446.0309676,z,1,0.8309466,None,,,,,142662,1,2024-10-17_21h23.34.089,untitled,2024.2.1post4,61.34239238,2024-10-17 21h23.39.257599 +0530
-50,x,176,0,44,x,1,0.4923179,None,44,0,176,0,,,,,446.0433453,,446.0313772,446.0433453,447.0426487,447.0426487,447.0426487,447.0426487,447.0426487,448.042844,448.042844,448.5454098,x,1,0.4923179,None,,,,,142662,1,2024-10-17_21h23.34.089,untitled,2024.2.1post4,61.34239238,2024-10-17 21h23.39.257599 +0530
150,y,177,1,44,v,0,1.4792314,None,44,1,177,1,,,,,448.5599626,,448.5456586,448.5599626,449.5597801,449.5597801,449.5597801,449.5597801,449.5597801,450.559522,450.559522,452.0484864,v,0,1.4792314,None,,,,,142662,1,2024-10-17_21h23.34.089,untitled,2024.2.1post4,61.34239238,2024-10-17 21h23.39.257599 +0530
50,c,178,2,44,c,1,0.5818693,None,44,2,178,2,,,,,452.0599815,,452.0488215,452.0599815,453.0589066,453.0589066,453.0589066,453.0589066,453.0589066,454.0590094,454.0590094,454.6482133,c,1,0.5818693,None,,,,,142662,1,2024-10-17_21h23.34.089,untitled,2024.2.1post4,61.34239238,2024-10-17 21h23.39.257599 +0530
-150,z,179,3,44,z,1,0.3860004,None,44,3,179,3,,,,,454.6599939,,454.6485749,454.6599939,455.6611271,455.6611271,455.6611271,455.6611271,455.6611271,456.6584979,456.6584979,457.0474817,z,1,0.3860004,None,,,,,142662,1,2024-10-17_21h23.34.089,untitled,2024.2.1post4,61.34239238,2024-10-17 21h23.39.257599 +0530
-50,x,180,0,45,x,1,0.3467408,None,45,0,180,0,,,,,457.0596565,,457.0478011,457.0596565,458.0600558,458.0600558,458.0600558,458.0600558,458.0600558,459.0599257,459.0599257,459.4144473,x,1,0.3467408,None,,,,,142662,1,2024-10-17_21h23.34.089,untitled,2024.2.1post4,61.34239238,2024-10-17 21h23.39.257599 +0530
150,y,181,1,45,v,0,0.6207004,None,45,1,181,1,,,,,459.4268256,,459.414762,459.4268256,460.4263603,460.4263603,460.4263603,460.4263603,460.4263603,461.4258167,461.4258167,462.0634566,v,0,0.6207004,None,,,,,142662,1,2024-10-17_21h23.34.089,untitled,2024.2.1post4,61.34239238,2024-10-17 21h23.39.257599 +0530
50,c,182,2,45,c,1,0.3785919,None,45,2,182,2,,,,,462.0759361,,462.0637754,462.0759361,463.076626,463.076626,463.076626,463.076626,463.076626,464.0757913,464.0757913,464.4654641,c,1,0.3785919,None,,,,,142662,1,2024-10-17_21h23.34.089,untitled,2024.2.1post4,61.34239238,2024-10-17 21h23.39.257599 +0530
-150,z,183,3,45,z,1,0.3702856,None,45,3,183,3,,,,,464.476599,,464.4659027,464.476599,465.4760773,465.4760773,465.4760773,465.4760773,465.4760773,466.475893,466.475893,466.8483941,z,1,0.3702856,None,,,,,142662,1,2024-10-17_21h23.34.089,untitled,2024.2.1post4,61.34239238,2024-10-17 21h23.39.257599 +0530
-50,x,184,0,46,x,1,0.3045209,None,46,0,184,0,,,,,466.8598448,,466.8488865,466.8598448,467.8586323,467.8586323,467.8586323,467.8586323,467.8586323,468.8586979,468.8586979,469.1808097,x,1,0.3045209,None,,,,,142662,1,2024-10-17_21h23.34.089,untitled,2024.2.1post4,61.34239238,2024-10-17 21h23.39.257599 +0530
150,y,185,1,46,v,0,0.398671,None,46,1,185,1,,,,,469.192472,,469.1811053,469.192472,470.1919806,470.1919806,470.1919806,470.1919806,470.1919806,471.1927823,471.1927823,471.5967836,v,0,0.398671,None,,,,,142662,1,2024-10-17_21h23.34.089,untitled,2024.2.1post4,61.34239238,2024-10-17 21h23.39.257599 +0530
50,c,186,2,46,c,1,0.4367485,None,46,2,186,2,,,,,471.6096461,,471.5970774,471.6096461,472.6088399,472.6088399,472.6088399,472.6088399,472.6088399,473.6084824,473.6084824,474.0636602,c,1,0.4367485,None,,,,,142662,1,2024-10-17_21h23.34.089,untitled,2024.2.1post4,61.34239238,2024-10-17 21h23.39.257599 +0530
-150,z,187,3,46,z,1,0.4069129,None,46,3,187,3,,,,,474.0754092,,474.0641597,474.0754092,475.0756043,475.0756043,475.0756043,475.0756043,475.0756043,476.0758971,476.0758971,476.4970347,z,1,0.4069129,None,,,,,142662,1,2024-10-17_21h23.34.089,untitled,2024.2.1post4,61.34239238,2024-10-17 21h23.39.257599 +0530
-50,x,188,0,47,x,1,0.3732449,None,47,0,188,0,,,,,476.5096534,,476.4975372,476.5096534,477.509169,477.509169,477.509169,477.509169,477.509169,478.5090521,478.5090521,478.898525,x,1,0.3732449,None,,,,,142662,1,2024-10-17_21h23.34.089,untitled,2024.2.1post4,61.34239238,2024-10-17 21h23.39.257599 +0530
150,y,189,1,47,v,0,1.6128239,None,47,1,189,1,,,,,478.9091313,,478.8991109,478.9091313,479.9096954,479.9096954,479.9096954,479.9096954,479.9096954,480.9084545,480.9084545,482.5305379,v,0,1.6128239,None,,,,,142662,1,2024-10-17_21h23.34.089,untitled,2024.2.1post4,61.34239238,2024-10-17 21h23.39.257599 +0530
50,c,190,2,47,c,1,0.3925067,None,47,2,190,2,,,,,482.5424688,,482.5308493,482.5424688,483.5428817,483.5428817,483.5428817,483.5428817,483.5428817,484.5423168,484.5423168,484.9488438,c,1,0.3925067,None,,,,,142662,1,2024-10-17_21h23.34.089,untitled,2024.2.1post4,61.34239238,2024-10-17 21h23.39.257599 +0530
-150,z,191,3,47,z,1,0.3069522,None,47,3,191,3,,,,,484.9588355,,484.9490702,484.9588355,485.9582522,485.9582522,485.9582522,485.9582522,485.9582522,486.9583868,486.9583868,487.2804096,z,1,0.3069522,None,,,,,142662,1,2024-10-17_21h23.34.089,untitled,2024.2.1post4,61.34239238,2024-10-17 21h23.39.257599 +0530
-50,x,192,0,48,x,1,0.48361,None,48,0,192,0,,,,,487.2928092,,487.2808847,487.2928092,488.2922823,488.2922823,488.2922823,488.2922823,488.2922823,489.2926867,489.2926867,489.7819608,x,1,0.48361,None,,,,,142662,1,2024-10-17_21h23.34.089,untitled,2024.2.1post4,61.34239238,2024-10-17 21h23.39.257599 +0530
150,y,193,1,48,v,0,0.4981013,None,48,1,193,1,,,,,489.792821,,489.7824823,489.792821,490.791915,490.791915,490.791915,490.791915,490.8080649,491.7919998,491.7919998,492.2975358,v,0,0.4981013,None,,,,,142662,1,2024-10-17_21h23.34.089,untitled,2024.2.1post4,61.34239238,2024-10-17 21h23.39.257599 +0530
50,c,194,2,48,c,1,0.5247521,None,48,2,194,2,,,,,492.3105256,,492.2980201,492.3105256,493.3087547,493.3087547,493.3087547,493.3087547,493.325877,494.3090805,494.3090805,494.8467108,c,1,0.5247521,None,,,,,142662,1,2024-10-17_21h23.34.089,untitled,2024.2.1post4,61.34239238,2024-10-17 21h23.39.257599 +0530
-150,z,195,3,48,z,1,0.456757,None,48,3,195,3,,,,,494.8591866,,494.8470717,494.8591866,495.8595673,495.8595673,495.8595673,495.8595673,495.8595673,496.8590108,496.8590108,497.3290544,z,1,0.456757,None,,,,,142662,1,2024-10-17_21h23.34.089,untitled,2024.2.1post4,61.34239238,2024-10-17 21h23.39.257599 +0530
-50,x,196,0,49,x,1,0.437704,None,49,0,196,0,,,,,497.3428678,,497.3294418,497.3428678,498.3423268,498.3423268,498.3423268,498.3423268,498.3423268,499.3420614,499.3420614,499.7964099,x,1,0.437704,None,,,,,142662,1,2024-10-17_21h23.34.089,untitled,2024.2.1post4,61.34239238,2024-10-17 21h23.39.257599 +0530
150,y,197,1,49,v,0,0.9257347,None,49,1,197,1,,,,,499.8090524,,499.7967388,499.8090524,500.8084388,500.8084388,500.8084388,500.8084388,500.8084388,501.8090977,501.8090977,502.7460445,v,0,0.9257347,None,,,,,142662,1,2024-10-17_21h23.34.089,untitled,2024.2.1post4,61.34239238,2024-10-17 21h23.39.257599 +0530
50,c,198,2,49,c,1,0.3208208,None,49,2,198,2,,,,,502.7585448,,502.7464351,502.7585448,503.7586725,503.7586725,503.7586725,503.7586725,503.7586725,504.7585468,504.7585468,505.095125,c,1,0.3208208,None,,,,,142662,1,2024-10-17_21h23.34.089,untitled,2024.2.1post4,61.34239238,2024-10-17 21h23.39.257599 +0530
-150,z,199,3,49,z,1,0.3364254,None,49,3,199,3,,,,,505.1088464,,505.0954135,505.1088464,506.1081314,506.1081314,506.1081314,506.1081314,506.1081314,507.1082717,507.1082717,507.4618678,z,1,0.3364254,None,,,,,142662,1,2024-10-17_21h23.34.089,untitled,2024.2.1post4,61.34239238,2024-10-17 21h23.39.257599 +0530
-50,x,0,0,0,x,1,0.3844395,None,,,,,0,0,0,0,507.4753893,,507.4693637,507.4753893,508.4754729,508.4754729,508.4754729,508.4754729,508.4754729,509.4747355,509.4747355,509.8628172,,,,,x,1,0.3844395,None,142662,1,2024-10-17_21h23.34.089,untitled,2024.2.1post4,61.34239238,2024-10-17 21h23.39.257599 +0530
150,y,1,1,0,v,0,0.322345,None,,,,,0,1,1,1,509.875345,,509.8631118,509.875345,510.8759,510.8759,510.8759,510.8759,510.8759,511.8756367,511.8756367,512.211485,,,,,v,0,0.322345,None,142662,1,2024-10-17_21h23.34.089,untitled,2024.2.1post4,61.34239238,2024-10-17 21h23.39.257599 +0530
-150,z,2,2,0,z,1,0.6097737,None,,,,,0,2,2,3,512.2258334,,512.2117227,512.2258334,513.2253334,513.2253334,513.2253334,513.2253334,513.2253334,514.2252273,514.2252273,514.8459888,,,,,z,1,0.6097737,None,142662,1,2024-10-17_21h23.34.089,untitled,2024.2.1post4,61.34239238,2024-10-17 21h23.39.257599 +0530
-150,z,3,3,1,z,1,0.4698389,None,,,,,1,3,3,3,514.8579612,,514.8463131,514.8579612,515.8574922,515.8574922,515.8574922,515.8574922,515.8574922,516.8593733,516.8593733,517.3432359,,,,,z,1,0.4698389,None,142662,1,2024-10-17_21h23.34.089,untitled,2024.2.1post4,61.34239238,2024-10-17 21h23.39.257599 +0530
150,y,4,4,1,v,0,0.3574806,None,,,,,1,4,4,1,517.3582232,,517.3434751,517.3582232,518.3419133,518.3419133,518.3419133,518.3419133,518.3579457,519.3579227,519.3579227,519.7301869,,,,,v,0,0.3574806,None,142662,1,2024-10-17_21h23.34.089,untitled,2024.2.1post4,61.34239238,2024-10-17 21h23.39.257599 +0530
-50,x,5,5,1,x,1,0.5147919,None,,,,,1,5,5,0,519.7424926,,519.7305766,519.7424926,520.7417789,520.7417789,520.7417789,520.7417789,520.7589671,521.7430765,521.7430765,522.2640008,,,,,x,1,0.5147919,None,142662,1,2024-10-17_21h23.34.089,untitled,2024.2.1post4,61.34239238,2024-10-17 21h23.39.257599 +0530
150,y,6,6,2,v,0,0.408734,None,,,,,2,6,6,1,522.275186,,522.2643879,522.275186,523.2755578,523.2755578,523.2755578,523.2755578,523.2755578,524.2742998,524.2742998,524.6952632,,,,,v,0,0.408734,None,142662,1,2024-10-17_21h23.34.089,untitled,2024.2.1post4,61.34239238,2024-10-17 21h23.39.257599 +0530
-50,x,7,7,2,x,1,0.4194885,None,,,,,2,7,7,0,524.7080361,,524.6955258,524.7080361,525.7080806,525.7080806,525.7080806,525.7080806,525.7080806,526.7088802,526.7088802,527.130238,,,,,x,1,0.4194885,None,142662,1,2024-10-17_21h23.34.089,untitled,2024.2.1post4,61.34239238,2024-10-17 21h23.39.257599 +0530
-150,z,8,8,2,z,1,0.4799737,None,,,,,2,8,8,3,527.1431201,,527.130666,527.1431201,528.1411432,528.1411432,528.1411432,528.1411432,528.1411432,529.1406266,529.1406266,529.6280296,,,,,z,1,0.4799737,None,142662,1,2024-10-17_21h23.34.089,untitled,2024.2.1post4,61.34239238,2024-10-17 21h23.39.257599 +0530
150,y,9,9,3,v,0,0.3340744,None,,,,,3,9,9,1,529.6415141,,529.6282974,529.6415141,530.6424803,530.6424803,530.6424803,530.6424803,530.6424803,531.6419653,531.6419653,531.979212,,,,,v,0,0.3340744,None,142662,1,2024-10-17_21h23.34.089,untitled,2024.2.1post4,61.34239238,2024-10-17 21h23.39.257599 +0530
-150,z,10,10,3,z,1,0.6795263,None,,,,,3,10,10,3,531.9920827,,531.9794759,531.9920827,532.9918069,532.9918069,532.9918069,532.9918069,532.9918069,533.9913147,533.9913147,534.6784507,,,,,z,1,0.6795263,None,142662,1,2024-10-17_21h23.34.089,untitled,2024.2.1post4,61.34239238,2024-10-17 21h23.39.257599 +0530
-50,x,11,11,3,x,1,0.6141638,None,,,,,3,11,11,0,534.692621,,534.678738,534.692621,535.6921135,535.6921135,535.6921135,535.6921135,535.6921135,536.6918653,536.6918653,537.3113665,,,,,x,1,0.6141638,None,142662,1,2024-10-17_21h23.34.089,untitled,2024.2.1post4,61.34239238,2024-10-17 21h23.39.257599 +0530
-150,z,12,12,4,z,1,0.4854573,None,,,,,4,12,12,3,537.324852,,537.3116414,537.324852,538.3254573,538.3254573,538.3254573,538.3254573,538.3254573,539.324327,539.324327,539.8128177,,,,,z,1,0.4854573,None,142662,1,2024-10-17_21h23.34.089,untitled,2024.2.1post4,61.34239238,2024-10-17 21h23.39.257599 +0530
-50,x,13,13,4,x,1,0.6006061,None,,,,,4,13,13,0,539.8253217,,539.8131831,539.8253217,540.8244882,540.8244882,540.8244882,540.8244882,540.8244882,541.8248441,541.8248441,542.4305255,,,,,x,1,0.6006061,None,142662,1,2024-10-17_21h23.34.089,untitled,2024.2.1post4,61.34239238,2024-10-17 21h23.39.257599 +0530
50,c,14,14,0,c,1,0.6063657,None,,,,,0,14,14,2,542.4415197,,542.430823,542.4415197,543.440974,543.440974,543.440974,543.440974,543.440974,544.4409192,544.4409192,545.060947,,,,,c,1,0.6063657,None,142662,1,2024-10-17_21h23.34.089,untitled,2024.2.1post4,61.34239238,2024-10-17 21h23.39.257599 +0530
50,c,15,15,1,c,1,0.4625058,None,,,,,1,15,15,2,545.0748367,,545.0614251,545.0748367,546.0746993,546.0746993,546.0746993,546.0746993,546.0746993,547.0735213,547.0735213,547.5451845,,,,,c,1,0.4625058,None,142662,1,2024-10-17_21h23.34.089,untitled,2024.2.1post4,61.34239238,2024-10-17 21h23.39.257599 +0530
150,y,16,16,4,v,0,0.6300847,None,,,,,4,16,16,1,547.5579008,,547.5456256,547.5579008,548.5571956,548.5571956,548.5571956,548.5571956,548.5571956,549.5574061,549.5574061,550.1976431,,,,,v,0,0.6300847,None,142662,1,2024-10-17_21h23.34.089,untitled,2024.2.1post4,61.34239238,2024-10-17 21h23.39.257599 +0530
50,c,17,17,2,c,1,0.5194582,None,,,,,2,17,17,2,550.2090214,,550.1980275,550.2090214,551.208513,551.208513,551.208513,551.208513,551.208513,552.2078435,552.2078435,552.7295049,,,,,c,1,0.5194582,None,142662,1,2024-10-17_21h23.34.089,untitled,2024.2.1post4,61.34239238,2024-10-17 21h23.39.257599 +0530
-50,x,18,18,5,x,1,0.8088282,None,,,,,5,18,18,0,552.7416432,,552.7298705,552.7416432,553.7404936,553.7404936,553.7404936,553.7404936,553.7404936,554.7412756,554.7412756,555.5615129,,,,,x,1,0.8088282,None,142662,1,2024-10-17_21h23.34.089,untitled,2024.2.1post4,61.34239238,2024-10-17 21h23.39.257599 +0530
-150,z,19,19,5,z,1,0.4862528,None,,,,,5,19,19,3,555.5756244,,555.5617459,555.5756244,556.5738958,556.5738958,556.5738958,556.5738958,556.5738958,557.5740489,557.5740489,558.061833,,,,,z,1,0.4862528,None,142662,1,2024-10-17_21h23.34.089,untitled,2024.2.1post4,61.34239238,2024-10-17 21h23.39.257599 +0530
-50,x,20,20,6,x,1,0.4277604,None,,,,,6,20,20,0,558.0747897,,558.0621004,558.0747897,559.074149,559.074149,559.074149,559.074149,559.074149,560.0737581,560.0737581,560.5114827,,,,,x,1,0.4277604,None,142662,1,2024-10-17_21h23.34.089,untitled,2024.2.1post4,61.34239238,2024-10-17 21h23.39.257599 +0530
-50,x,21,21,7,x,1,0.6379155,None,,,,,7,21,21,0,560.525112,,560.5117364,560.525112,561.5256609,561.5256609,561.5256609,561.5256609,561.5256609,562.5249703,562.5249703,563.1778358,,,,,x,1,0.6379155,None,142662,1,2024-10-17_21h23.34.089,untitled,2024.2.1post4,61.34239238,2024-10-17 21h23.39.257599 +0530
50,c,22,22,3,c,1,1.4265487,None,,,,,3,22,22,2,563.192347,,563.1781171,563.192347,564.1921917,564.1921917,564.1921917,564.1921917,564.2073895,565.1909369,565.1909369,566.629106,,,,,c,1,1.4265487,None,142662,1,2024-10-17_21h23.34.089,untitled,2024.2.1post4,61.34239238,2024-10-17 21h23.39.257599 +0530
150,y,23,23,5,v,0,0.5969866,None,,,,,5,23,23,1,566.6418128,,566.6294495,566.6418128,567.6413887,567.6413887,567.6413887,567.6413887,567.6413887,568.6413407,568.6413407,569.2462109,,,,,v,0,0.5969866,None,142662,1,2024-10-17_21h23.34.089,untitled,2024.2.1post4,61.34239238,2024-10-17 21h23.39.257599 +0530
-50,x,24,24,8,x,1,0.7963827,None,,,,,8,24,24,0,569.258517,,569.2465479,569.258517,570.2574175,570.2574175,570.2574175,570.2574175,570.2574175,571.2573704,571.2573704,572.0621558,,,,,x,1,0.7963827,None,142662,1,2024-10-17_21h23.34.089,untitled,2024.2.1post4,61.34239238,2024-10-17 21h23.39.257599 +0530
150,y,25,25,6,v,0,0.5119148,None,,,,,6,25,25,1,572.0739698,,572.062515,572.0739698,573.0735862,573.0735862,573.0735862,573.0735862,573.0735862,574.0741501,574.0741501,574.5947234,,,,,v,0,0.5119148,None,142662,1,2024-10-17_21h23.34.089,untitled,2024.2.1post4,61.34239238,2024-10-17 21h23.39.257599 +0530
150,y,26,26,7,v,0,0.4289415,None,,,,,7,26,26,1,574.6074971,,574.5950236,574.6074971,575.6069473,575.6069473,575.6069473,575.6069473,575.6069473,576.607107,576.607107,577.0436364,,,,,v,0,0.4289415,None,142662,1,2024-10-17_21h23.34.089,untitled,2024.2.1post4,61.34239238,2024-10-17 21h23.39.257599 +0530
150,y,27,27,8,v,0,0.4700507,None,,,,,8,27,27,1,577.0583936,,577.0438955,577.0583936,578.0565476,578.0565476,578.0565476,578.0565476,578.0734233,579.0573435,579.0573435,579.5295199,,,,,v,0,0.4700507,None,142662,1,2024-10-17_21h23.34.089,untitled,2024.2.1post4,61.34239238,2024-10-17 21h23.39.257599 +0530
150,y,28,28,9,v,0,0.5974089,None,,,,,9,28,28,1,579.5407944,,579.5298038,579.5407944,580.5406033,580.5406033,580.5406033,580.5406033,580.5406033,581.5412974,581.5412974,582.1438404,,,,,v,0,0.5974089,None,142662,1,2024-10-17_21h23.34.089,untitled,2024.2.1post4,61.34239238,2024-10-17 21h23.39.257599 +0530
-50,x,29,29,9,x,1,1.1681238,None,,,,,9,29,29,0,582.1570096,,582.1440987,582.1570096,583.1568708,583.1568708,583.1568708,583.1568708,583.1568708,584.157288,584.157288,585.3277889,,,,,x,1,1.1681238,None,142662,1,2024-10-17_21h23.34.089,untitled,2024.2.1post4,61.34239238,2024-10-17 21h23.39.257599 +0530
50,c,30,30,4,c,1,0.4840596,None,,,,,4,30,30,2,585.3405285,,585.3280822,585.3405285,586.3407635,586.3407635,586.3407635,586.3407635,586.3407635,587.3403202,587.3403202,587.8287491,,,,,c,1,0.4840596,None,142662,1,2024-10-17_21h23.34.089,untitled,2024.2.1post4,61.34239238,2024-10-17 21h23.39.257599 +0530
150,y,31,31,10,v,0,0.587963,None,,,,,10,31,31,1,587.840882,,587.8290297,587.840882,588.8410481,588.8410481,588.8410481,588.8410481,588.8410481,589.8413899,589.8413899,590.4468002,,,,,v,0,0.587963,None,142662,1,2024-10-17_21h23.34.089,untitled,2024.2.1post4,61.34239238,2024-10-17 21h23.39.257599 +0530
150,y,32,32,11,v,0,0.8815632,None,,,,,11,32,32,1,590.4578153,,590.4482553,590.4578153,591.456645,591.456645,591.456645,591.456645,591.456645,592.4567992,592.4567992,593.3450393,,,,,v,0,0.8815632,None,142662,1,2024-10-17_21h23.34.089,untitled,2024.2.1post4,61.34239238,2024-10-17 21h23.39.257599 +0530
50,c,33,33,5,c,1,0.5923087,None,,,,,5,33,33,2,593.3567371,,593.3453809,593.3567371,594.3566045,594.3566045,594.3566045,594.3566045,594.3566045,595.3575658,595.3575658,595.9602988,,,,,c,1,0.5923087,None,142662,1,2024-10-17_21h23.34.089,untitled,2024.2.1post4,61.34239238,2024-10-17 21h23.39.257599 +0530
-150,z,34,34,6,z,1,0.9266424,None,,,,,6,34,34,3,595.9738561,,595.9615201,595.9738561,596.9731265,596.9731265,596.9731265,596.9731265,596.9731265,597.9724829,597.9724829,598.9110112,,,,,z,1,0.9266424,None,142662,1,2024-10-17_21h23.34.089,untitled,2024.2.1post4,61.34239238,2024-10-17 21h23.39.257599 +0530
-150,z,35,35,7,z,1,0.4462463,None,,,,,7,35,35,3,598.9243392,,598.9112745,598.9243392,599.9232969,599.9232969,599.9232969,599.9232969,599.9232969,600.9242946,600.9242946,601.3772603,,,,,z,1,0.4462463,None,142662,1,2024-10-17_21h23.34.089,untitled,2024.2.1post4,61.34239238,2024-10-17 21h23.39.257599 +0530
-50,x,36,36,10,x,1,0.3669773,None,,,,,10,36,36,0,601.3908297,,601.3775062,601.3908297,602.3900235,602.3900235,602.3900235,602.3900235,602.3900235,603.3898361,603.3898361,603.7614383,,,,,x,1,0.3669773,None,142662,1,2024-10-17_21h23.34.089,untitled,2024.2.1post4,61.34239238,2024-10-17 21h23.39.257599 +0530
-50,x,37,37,11,x,1,0.4536694,None,,,,,11,37,37,0,603.7745781,,603.7618765,603.7745781,604.7742052,604.7742052,604.7742052,604.7742052,604.7742052,605.7742156,605.7742156,606.2442496,,,,,x,1,0.4536694,None,142662,1,2024-10-17_21h23.34.089,untitled,2024.2.1post4,61.34239238,2024-10-17 21h23.39.257599 +0530
50,c,38,38,6,c,1,0.3856567,None,,,,,6,38,38,2,606.2578215,,606.2445193,606.2578215,607.2575105,607.2575105,607.2575105,607.2575105,607.2575105,608.2566102,608.2566102,608.6466688,,,,,c,1,0.3856567,None,142662,1,2024-10-17_21h23.34.089,untitled,2024.2.1post4,61.34239238,2024-10-17 21h23.39.257599 +0530
-150,z,39,39,8,z,1,1.746207,None,,,,,8,39,39,3,608.6575997,,608.6480828,608.6575997,609.6577632,609.6577632,609.6577632,609.6577632,609.6577632,610.6575254,610.6575254,612.4109626,,,,,z,1,1.746207,None,142662,1,2024-10-17_21h23.34.089,untitled,2024.2.1post4,61.34239238,2024-10-17 21h23.39.257599 +0530
-150,z,40,40,9,z,1,0.5293682,None,,,,,9,40,40,3,612.4236687,,612.412044,612.4236687,613.4242801,613.4242801,613.4242801,613.4242801,613.4242801,614.4236304,614.4236304,614.961779,,,,,z,1,0.5293682,None,142662,1,2024-10-17_21h23.34.089,untitled,2024.2.1post4,61.34239238,2024-10-17 21h23.39.257599 +0530
-50,x,41,41,12,x,1,0.3664903,None,,,,,12,41,41,0,614.9734543,,614.9621912,614.9734543,615.9731836,615.9731836,615.9731836,615.9731836,615.9731836,616.9732994,616.9732994,617.3461489,,,,,x,1,0.3664903,None,142662,1,2024-10-17_21h23.34.089,untitled,2024.2.1post4,61.34239238,2024-10-17 21h23.39.257599 +0530
50,c,42,42,7,c,1,0.5863821,None,,,,,7,42,42,2,617.3565223,,617.3466154,617.3565223,618.3569054,618.3569054,618.3569054,618.3569054,618.3569054,619.3569087,619.3569087,619.9447339,,,,,c,1,0.5863821,None,142662,1,2024-10-17_21h23.34.089,untitled,2024.2.1post4,61.34239238,2024-10-17 21h23.39.257599 +0530
-50,x,43,43,13,x,1,0.4178387,None,,,,,13,43,43,0,619.9580103,,619.944984,619.9580103,620.957457,620.957457,620.957457,620.957457,620.957457,621.9557461,621.9557461,622.3778262,,,,,x,1,0.4178387,None,142662,1,2024-10-17_21h23.34.089,untitled,2024.2.1post4,61.34239238,2024-10-17 21h23.39.257599 +0530
-150,z,44,44,10,z,1,0.6974533,None,,,,,10,44,44,3,622.3906894,,622.3780619,622.3906894,623.3900464,623.3900464,623.3900464,623.3900464,623.3900464,624.3894649,624.3894649,625.0944242,,,,,z,1,0.6974533,None,142662,1,2024-10-17_21h23.34.089,untitled,2024.2.1post4,61.34239238,2024-10-17 21h23.39.257599 +0530
150,y,45,45,12,v,0,0.7757684,None,,,,,12,45,45,1,625.1069307,,625.0946996,625.1069307,626.107215,626.107215,626.107215,626.107215,626.107215,627.1071458,627.1071458,627.8943735,,,,,v,0,0.7757684,None,142662,1,2024-10-17_21h23.34.089,untitled,2024.2.1post4,61.34239238,2024-10-17 21h23.39.257599 +0530
-50,x,46,46,14,x,1,0.4982885,None,,,,,14,46,46,0,627.90644,,627.8946073,627.90644,628.9063411,628.9063411,628.9063411,628.9063411,628.9063411,629.9064069,629.9064069,630.409736,,,,,x,1,0.4982885,None,142662,1,2024-10-17_21h23.34.089,untitled,2024.2.1post4,61.34239238,2024-10-17 21h23.39.257599 +0530
150,y,47,47,13,v,0,0.9869551,None,,,,,13,47,47,1,630.4235693,,630.409983,630.4235693,631.4231218,631.4231218,631.4231218,631.4231218,631.4231218,632.422115,632.422115,633.4111334,,,,,v,0,0.9869551,None,142662,1,2024-10-17_21h23.34.089,untitled,2024.2.1post4,61.34239238,2024-10-17 21h23.39.257599 +0530
50,c,48,48,8,x,0,0.8014688,None,,,,,8,48,48,2,633.4235563,,633.4114472,633.4235563,634.4234293,634.4234293,634.4234293,634.4234293,634.4234293,635.4229446,635.4229446,636.2279652,,,,,x,0,0.8014688,None,142662,1,2024-10-17_21h23.34.089,untitled,2024.2.1post4,61.34239238,2024-10-17 21h23.39.257599 +0530
-50,x,49,49,15,x,1,0.5140418,None,,,,,15,49,49,0,636.2405655,,636.2282199,636.2405655,637.2402557,637.2402557,637.2402557,637.2402557,637.2402557,638.239708,638.239708,638.7611886,,,,,x,1,0.5140418,None,142662,1,2024-10-17_21h23.34.089,untitled,2024.2.1post4,61.34239238,2024-10-17 21h23.39.257599 +0530
-150,z,50,50,11,z,1,0.548037,None,,,,,11,50,50,3,638.7740066,,638.7616684,638.7740066,639.7733598,639.7733598,639.7733598,639.7733598,639.7891243,640.7734793,640.7734793,641.3318718,,,,,z,1,0.548037,None,142662,1,2024-10-17_21h23.34.089,untitled,2024.2.1post4,61.34239238,2024-10-17 21h23.39.257599 +0530
50,c,51,51,9,c,1,0.4903037,None,,,,,9,51,51,2,641.3404084,,641.3322974,641.3404084,642.3403712,642.3403712,642.3403712,642.3403712,642.3403712,643.3394031,643.3394031,643.843611,,,,,c,1,0.4903037,None,142662,1,2024-10-17_21h23.34.089,untitled,2024.2.1post4,61.34239238,2024-10-17 21h23.39.257599 +0530
150,y,52,52,14,v,0,0.5959881,None,,,,,14,52,52,1,643.8568557,,643.8439074,643.8568557,644.8569693,644.8569693,644.8569693,644.8569693,644.8569693,645.8569434,645.8569434,646.4597704,,,,,v,0,0.5959881,None,142662,1,2024-10-17_21h23.34.089,untitled,2024.2.1post4,61.34239238,2024-10-17 21h23.39.257599 +0530
150,y,53,53,15,v,0,0.4465216,None,,,,,15,53,53,1,646.4731051,,646.4600276,646.4731051,647.4729182,647.4729182,647.4729182,647.4729182,647.4729182,648.4734551,648.4734551,648.9268437,,,,,v,0,0.4465216,None,142662,1,2024-10-17_21h23.34.089,untitled,2024.2.1post4,61.34239238,2024-10-17 21h23.39.257599 +0530
-50,x,54,54,16,x,1,0.4807839,None,,,,,16,54,54,0,648.9407268,,648.9271047,648.9407268,649.9397127,649.9397127,649.9397127,649.9397127,649.9554685,650.9400389,650.9400389,651.4278747,,,,,x,1,0.4807839,None,142662,1,2024-10-17_21h23.34.089,untitled,2024.2.1post4,61.34239238,2024-10-17 21h23.39.257599 +0530
150,y,55,55,16,v,0,0.9187018,None,,,,,16,55,55,1,651.4399559,,651.4281862,651.4399559,652.4409005,652.4409005,652.4409005,652.4409005,652.4409005,653.4400025,653.4400025,654.3612696,,,,,v,0,0.9187018,None,142662,1,2024-10-17_21h23.34.089,untitled,2024.2.1post4,61.34239238,2024-10-17 21h23.39.257599 +0530
50,c,56,56,10,c,1,1.0412243,None,,,,,10,56,56,2,654.3728567,,654.3615354,654.3728567,655.3730988,655.3730988,655.3730988,655.3730988,655.3730988,656.3732666,656.3732666,657.4265211,,,,,c,1,1.0412243,None,142662,1,2024-10-17_21h23.34.089,untitled,2024.2.1post4,61.34239238,2024-10-17 21h23.39.257599 +0530
150,y,57,57,17,v,0,0.3976869,None,,,,,17,57,57,1,657.4392887,,657.4267545,657.4392887,658.4389492,658.4389492,658.4389492,658.4389492,658.4389492,659.4389554,659.4389554,659.8428896,,,,,v,0,0.3976869,None,142662,1,2024-10-17_21h23.34.089,untitled,2024.2.1post4,61.34239238,2024-10-17 21h23.39.257599 +0530
-150,z,58,58,12,z,1,0.5095366,None,,,,,12,58,58,3,659.8577236,,659.8431926,659.8577236,660.8566521,660.8566521,660.8566521,660.8566521,660.8566521,661.8546331,661.8546331,662.3757181,,,,,z,1,0.5095366,None,142662,1,2024-10-17_21h23.34.089,untitled,2024.2.1post4,61.34239238,2024-10-17 21h23.39.257599 +0530
150,y,59,59,18,v,0,0.5427786,None,,,,,18,59,59,1,662.3899847,,662.3759756,662.3899847,663.3898656,663.3898656,663.3898656,663.3898656,663.3898656,664.3891634,664.3891634,664.9426497,,,,,v,0,0.5427786,None,142662,1,2024-10-17_21h23.34.089,untitled,2024.2.1post4,61.34239238,2024-10-17 21h23.39.257599 +0530
-50,x,60,60,17,x,1,0.4530764,None,,,,,17,60,60,0,664.9561451,,664.9430747,664.9561451,665.9561671,665.9561671,665.9561671,665.9561671,665.9561671,666.956918,666.956918,667.4264711,,,,,x,1,0.4530764,None,142662,1,2024-10-17_21h23.34.089,untitled,2024.2.1post4,61.34239238,2024-10-17 21h23.39.257599 +0530
-50,x,61,61,18,x,1,0.4467812,None,,,,,18,61,61,0,667.439596,,667.4266929,667.439596,668.4390222,668.4390222,668.4390222,668.4390222,668.4390222,669.4395717,669.4395717,669.8924868,,,,,x,1,0.4467812,None,142662,1,2024-10-17_21h23.34.089,untitled,2024.2.1post4,61.34239238,2024-10-17 21h23.39.257599 +0530
50,c,62,62,11,c,1,1.4717046,None,,,,,11,62,62,2,669.9056758,,669.8927478,669.9056758,670.9061365,670.9061365,670.9061365,670.9061365,670.9061365,671.907275,671.907275,673.3944047,,,,,c,1,1.4717046,None,142662,1,2024-10-17_21h23.34.089,untitled,2024.2.1post4,61.34239238,2024-10-17 21h23.39.257599 +0530
-50,x,63,63,19,x,1,0.5067352,None,,,,,19,63,63,0,673.4065396,,673.3947197,673.4065396,674.4066106,674.4066106,674.4066106,674.4066106,674.4066106,675.4058256,675.4058256,675.9258609,,,,,x,1,0.5067352,None,142662,1,2024-10-17_21h23.34.089,untitled,2024.2.1post4,61.34239238,2024-10-17 21h23.39.257599 +0530
50,c,64,64,12,c,1,0.3599704,None,,,,,12,64,64,2,675.9393486,,675.926167,675.9393486,676.9388538,676.9388538,676.9388538,676.9388538,676.9388538,677.9394596,677.9394596,678.3092483,,,,,c,1,0.3599704,None,142662,1,2024-10-17_21h23.34.089,untitled,2024.2.1post4,61.34239238,2024-10-17 21h23.39.257599 +0530
50,c,65,65,13,c,1,0.6141862,None,,,,,13,65,65,2,678.323054,,678.3095419,678.323054,679.3227243,679.3227243,679.3227243,679.3227243,679.3227243,680.3224581,680.3224581,680.9454914,,,,,c,1,0.6141862,None,142662,1,2024-10-17_21h23.34.089,untitled,2024.2.1post4,61.34239238,2024-10-17 21h23.39.257599 +0530
-50,x,66,66,20,x,1,0.464359,None,,,,,20,66,66,0,680.9570105,,680.9459101,680.9570105,681.9552373,681.9552373,681.9552373,681.9552373,681.9552373,682.955719,682.955719,683.4268053,,,,,x,1,0.464359,None,142662,1,2024-10-17_21h23.34.089,untitled,2024.2.1post4,61.34239238,2024-10-17 21h23.39.257599 +0530
50,c,67,67,14,c,1,0.3501441,None,,,,,14,67,67,2,683.4400755,,683.4270737,683.4400755,684.4386383,684.4386383,684.4386383,684.4386383,684.4386383,685.4393935,685.4393935,685.7962089,,,,,c,1,0.3501441,None,142662,1,2024-10-17_21h23.34.089,untitled,2024.2.1post4,61.34239238,2024-10-17 21h23.39.257599 +0530
-150,z,68,68,13,z,1,0.5774977,None,,,,,13,68,68,3,685.8056645,,685.796558,685.8056645,686.8061925,686.8061925,686.8061925,686.8061925,686.8061925,687.805419,687.805419,688.395042,,,,,z,1,0.5774977,None,142662,1,2024-10-17_21h23.34.089,untitled,2024.2.1post4,61.34239238,2024-10-17 21h23.39.257599 +0530
-150,z,69,69,14,z,1,0.4513681,None,,,,,14,69,69,3,688.4071099,,688.3954639,688.4071099,689.4056865,689.4056865,689.4056865,689.4056865,689.4219109,690.4056874,690.4056874,690.859809,,,,,z,1,0.4513681,None,142662,1,2024-10-17_21h23.34.089,untitled,2024.2.1post4,61.34239238,2024-10-17 21h23.39.257599 +0530
150,y,70,70,19,v,0,0.5080582,None,,,,,19,70,70,1,690.8724154,,690.8600486,690.8724154,691.8717555,691.8717555,691.8717555,691.8717555,691.8717555,692.8718619,692.8718619,693.3928435,,,,,v,0,0.5080582,None,142662,1,2024-10-17_21h23.34.089,untitled,2024.2.1post4,61.34239238,2024-10-17 21h23.39.257599 +0530
-50,x,71,71,21,x,1,0.4498099,None,,,,,21,71,71,0,693.4057375,,693.3932024,693.4057375,694.4056861,694.4056861,694.4056861,694.4056861,694.4056861,695.4054923,695.4054923,695.8593357,,,,,x,1,0.4498099,None,142662,1,2024-10-17_21h23.34.089,untitled,2024.2.1post4,61.34239238,2024-10-17 21h23.39.257599 +0530
50,c,72,72,15,c,1,0.461792,None,,,,,15,72,72,2,695.8730385,,695.8595785,695.8730385,696.8726988,696.8726988,696.8726988,696.8726988,696.8726988,697.8715693,697.8715693,698.3423289,,,,,c,1,0.461792,None,142662,1,2024-10-17_21h23.34.089,untitled,2024.2.1post4,61.34239238,2024-10-17 21h23.39.257599 +0530
50,c,73,73,16,c,1,0.4628149,None,,,,,16,73,73,2,698.3565402,,698.3425648,698.3565402,699.3556901,699.3556901,699.3556901,699.3556901,699.3726872,700.3546004,700.3546004,700.8256377,,,,,c,1,0.4628149,None,142662,1,2024-10-17_21h23.34.089,untitled,2024.2.1post4,61.34239238,2024-10-17 21h23.39.257599 +0530
150,y,74,74,20,v,0,0.6057744,None,,,,,20,74,74,1,700.8391989,,700.8259037,700.8391989,701.8375554,701.8375554,701.8375554,701.8375554,701.8375554,702.8384148,702.8384148,703.4592382,,,,,v,0,0.6057744,None,142662,1,2024-10-17_21h23.34.089,untitled,2024.2.1post4,61.34239238,2024-10-17 21h23.39.257599 +0530
150,y,75,75,21,v,0,0.5356037,None,,,,,21,75,75,1,703.4728206,,703.4595615,703.4728206,704.4727283,704.4727283,704.4727283,704.4727283,704.4727283,705.4718851,705.4718851,706.0100585,,,,,v,0,0.5356037,None,142662,1,2024-10-17_21h23.34.089,untitled,2024.2.1post4,61.34239238,2024-10-17 21h23.39.257599 +0530
150,y,76,76,22,v,0,0.534308,None,,,,,22,76,76,1,706.0222774,,706.0103019,706.0222774,707.0217211,707.0217211,707.0217211,707.0217211,707.0217211,708.0224188,708.0224188,708.559339,,,,,v,0,0.534308,None,142662,1,2024-10-17_21h23.34.089,untitled,2024.2.1post4,61.34239238,2024-10-17 21h23.39.257599 +0530
-50,x,77,77,22,x,1,0.5679646,None,,,,,22,77,77,0,708.5718206,,708.5596,708.5718206,709.5717839,709.5717839,709.5717839,709.5717839,709.5717839,710.5713038,710.5713038,711.1430564,,,,,x,1,0.5679646,None,142662,1,2024-10-17_21h23.34.089,untitled,2024.2.1post4,61.34239238,2024-10-17 21h23.39.257599 +0530
-50,x,78,78,23,x,1,0.5550944,None,,,,,23,78,78,0,711.1563618,,711.1433561,711.1563618,712.1553643,712.1553643,712.1553643,712.1553643,712.1553643,713.1547097,713.1547097,713.7259267,,,,,x,1,0.5550944,None,142662,1,2024-10-17_21h23.34.089,untitled,2024.2.1post4,61.34239238,2024-10-17 21h23.39.257599 +0530
-150,z,79,79,15,z,1,0.4780835,None,,,,,15,79,79,3,713.739805,,713.7262081,713.739805,714.7387849,714.7387849,714.7387849,714.7387849,714.7387849,715.7400335,715.7400335,716.2250496,,,,,z,1,0.4780835,None,142662,1,2024-10-17_21h23.34.089,untitled,2024.2.1post4,61.34239238,2024-10-17 21h23.39.257599 +0530
-150,z,80,80,16,z,1,0.5860499,None,,,,,16,80,80,3,716.2382975,,716.2254218,716.2382975,717.2376291,717.2376291,717.2376291,717.2376291,717.2376291,718.2380431,718.2380431,718.8259065,,,,,z,1,0.5860499,None,142662,1,2024-10-17_21h23.34.089,untitled,2024.2.1post4,61.34239238,2024-10-17 21h23.39.257599 +0530
150,y,81,81,23,v,0,0.5052659,None,,,,,23,81,81,1,718.8396828,,718.8263241,718.8396828,719.8391317,719.8391317,719.8391317,719.8391317,719.8391317,720.8390653,720.8390653,721.3573486,,,,,v,0,0.5052659,None,142662,1,2024-10-17_21h23.34.089,untitled,2024.2.1post4,61.34239238,2024-10-17 21h23.39.257599 +0530
50,c,82,82,17,c,1,0.4177795,None,,,,,17,82,82,2,721.3714263,,721.3576061,721.3714263,722.3719942,722.3719942,722.3719942,722.3719942,722.3719942,723.3719453,723.3719453,723.7944832,,,,,c,1,0.4177795,None,142662,1,2024-10-17_21h23.34.089,untitled,2024.2.1post4,61.34239238,2024-10-17 21h23.39.257599 +0530
-150,z,83,83,17,z,1,0.4037814,None,,,,,17,83,83,3,723.8050314,,723.7948673,723.8050314,724.8047305,724.8047305,724.8047305,724.8047305,724.8047305,725.805982,725.805982,726.2248444,,,,,z,1,0.4037814,None,142662,1,2024-10-17_21h23.34.089,untitled,2024.2.1post4,61.34239238,2024-10-17 21h23.39.257599 +0530
50,c,84,84,18,c,1,1.3035214,None,,,,,18,84,84,2,726.23852,,726.2250923,726.23852,727.2379043,727.2379043,727.2379043,727.2379043,727.2379043,728.2378169,728.2378169,729.5443402,,,,,c,1,1.3035214,None,142662,1,2024-10-17_21h23.34.089,untitled,2024.2.1post4,61.34239238,2024-10-17 21h23.39.257599 +0530
150,y,85,85,24,v,0,0.6035793,None,,,,,24,85,85,1,729.5556098,,729.5446681,729.5556098,730.5548084,730.5548084,730.5548084,730.5548084,730.5548084,731.5548699,731.5548699,732.1765,,,,,v,0,0.6035793,None,142662,1,2024-10-17_21h23.34.089,untitled,2024.2.1post4,61.34239238,2024-10-17 21h23.39.257599 +0530
-150,z,86,86,18,z,1,0.6214899,None,,,,,18,86,86,3,732.1885376,,732.1767637,732.1885376,733.1880597,733.1880597,733.1880597,733.1880597,733.1880597,734.1887466,734.1887466,734.825774,,,,,z,1,0.6214899,None,142662,1,2024-10-17_21h23.34.089,untitled,2024.2.1post4,61.34239238,2024-10-17 21h23.39.257599 +0530
-150,z,87,87,19,z,1,0.5195485,None,,,,,19,87,87,3,734.8382612,,734.8260815,734.8382612,735.8377988,735.8377988,735.8377988,735.8377988,735.8377988,736.8376852,736.8376852,737.3587324,,,,,z,1,0.5195485,None,142662,1,2024-10-17_21h23.34.089,untitled,2024.2.1post4,61.34239238,2024-10-17 21h23.39.257599 +0530
50,c,88,88,19,lctrl,0,0.1303265,None,,,,,19,88,88,2,737.3712757,,737.3591962,737.3712757,738.3722698,738.3722698,738.3722698,738.3722698,738.3722698,739.371695,739.371695,739.5097178,,,,,lctrl,0,0.1303265,None,142662,1,2024-10-17_21h23.34.089,untitled,2024.2.1post4,61.34239238,2024-10-17 21h23.39.257599 +0530
50,c,89,89,20,c,1,0.511249,None,,,,,20,89,89,2,739.5219834,,739.5100538,739.5219834,740.5218726,740.5218726,740.5218726,740.5218726,740.5218726,741.5211088,741.5211088,742.0427308,,,,,c,1,0.511249,None,142662,1,2024-10-17_21h23.34.089,untitled,2024.2.1post4,61.34239238,2024-10-17 21h23.39.257599 +0530
-150,z,90,90,20,lctrl,0,1.023198,None,,,,,20,90,90,3,742.0556185,,742.0430276,742.0556185,743.0551779,743.0551779,743.0551779,743.0551779,743.0551779,744.0554446,744.0554446,745.0923833,,,,,lctrl,0,1.023198,None,142662,1,2024-10-17_21h23.34.089,untitled,2024.2.1post4,61.34239238,2024-10-17 21h23.39.257599 +0530
50,c,91,91,21,c,1,0.3647275,None,,,,,21,91,91,2,745.1047912,,745.0926912,745.1047912,746.1050432,746.1050432,746.1050432,746.1050432,746.1050432,747.1048919,747.1048919,747.4769396,,,,,c,1,0.3647275,None,142662,1,2024-10-17_21h23.34.089,untitled,2024.2.1post4,61.34239238,2024-10-17 21h23.39.257599 +0530
150,y,92,92,25,v,0,0.4314277,None,,,,,25,92,92,1,747.4880798,,747.4772468,747.4880798,748.4881541,748.4881541,748.4881541,748.4881541,748.4881541,749.4884378,749.4884378,749.9256085,,,,,v,0,0.4314277,None,142662,1,2024-10-17_21h23.34.089,untitled,2024.2.1post4,61.34239238,2024-10-17 21h23.39.257599 +0530
-50,x,93,93,24,z,0,0.3573759,None,,,,,24,93,93,0,749.9365213,,749.9260321,749.9365213,750.9376567,750.9376567,750.9376567,750.9376567,750.9376567,751.9384327,751.9384327,752.307479,,,,,z,0,0.3573759,None,142662,1,2024-10-17_21h23.34.089,untitled,2024.2.1post4,61.34239238,2024-10-17 21h23.39.257599 +0530
150,y,94,94,26,v,0,0.4809208,None,,,,,26,94,94,1,752.3216734,,752.3078066,752.3216734,753.3214562,753.3214562,753.3214562,753.3214562,753.3214562,754.322005,754.322005,754.8083731,,,,,v,0,0.4809208,None,142662,1,2024-10-17_21h23.34.089,untitled,2024.2.1post4,61.34239238,2024-10-17 21h23.39.257599 +0530
-50,x,95,95,25,x,1,0.3227691,None,,,,,25,95,95,0,754.821567,,754.8089194,754.821567,755.8209441,755.8209441,755.8209441,755.8209441,755.8209441,756.8220044,756.8220044,757.1598051,,,,,x,1,0.3227691,None,142662,1,2024-10-17_21h23.34.089,untitled,2024.2.1post4,61.34239238,2024-10-17 21h23.39.257599 +0530
150,y,96,96,27,v,0,0.5658749,None,,,,,27,96,96,1,757.1724257,,757.1601711,757.1724257,758.1719986,758.1719986,758.1719986,758.1719986,758.1719986,759.171943,759.171943,759.7407424,,,,,v,0,0.5658749,None,142662,1,2024-10-17_21h23.34.089,untitled,2024.2.1post4,61.34239238,2024-10-17 21h23.39.257599 +0530
-150,z,97,97,21,z,1,0.4300452,None,,,,,21,97,97,3,759.7544446,,759.7409747,759.7544446,760.7552385,760.7552385,760.7552385,760.7552385,760.7552385,761.7555345,761.7555345,762.1906312,,,,,z,1,0.4300452,None,142662,1,2024-10-17_21h23.34.089,untitled,2024.2.1post4,61.34239238,2024-10-17 21h23.39.257599 +0530
150,y,98,98,28,v,0,0.3951689,None,,,,,28,98,98,1,762.2059745,,762.190886,762.2059745,763.2041149,763.2041149,763.2041149,763.2041149,763.2041149,764.2041574,764.2041574,764.6076102,,,,,v,0,0.3951689,None,142662,1,2024-10-17_21h23.34.089,untitled,2024.2.1post4,61.34239238,2024-10-17 21h23.39.257599 +0530
150,y,99,99,29,v,0,0.4223205,None,,,,,29,99,99,1,764.6213178,,764.6079038,764.6213178,765.622041,765.622041,765.622041,765.622041,765.622041,766.621428,766.621428,767.0595198,,,,,v,0,0.4223205,None,142662,1,2024-10-17_21h23.34.089,untitled,2024.2.1post4,61.34239238,2024-10-17 21h23.39.257599 +0530
-150,z,100,100,22,z,1,0.4216722,None,,,,,22,100,100,3,767.0718866,,767.0599707,767.0718866,768.070644,768.070644,768.070644,768.070644,768.070644,769.0705705,769.0705705,769.5069801,,,,,z,1,0.4216722,None,142662,1,2024-10-17_21h23.34.089,untitled,2024.2.1post4,61.34239238,2024-10-17 21h23.39.257599 +0530
150,y,101,101,30,v,0,0.5086826,None,,,,,30,101,101,1,769.5214482,,769.5072967,769.5214482,770.5209722,770.5209722,770.5209722,770.5209722,770.5209722,771.5211405,771.5211405,772.0436078,,,,,v,0,0.5086826,None,142662,1,2024-10-17_21h23.34.089,untitled,2024.2.1post4,61.34239238,2024-10-17 21h23.39.257599 +0530
50,c,102,102,22,c,1,0.5845233,None,,,,,22,102,102,2,772.0551405,,772.0439596,772.0551405,773.0542685,773.0542685,773.0542685,773.0542685,773.0542685,774.0552362,774.0552362,774.6428685,,,,,c,1,0.5845233,None,142662,1,2024-10-17_21h23.34.089,untitled,2024.2.1post4,61.34239238,2024-10-17 21h23.39.257599 +0530
50,c,103,103,23,lctrl,0,0.1886999,None,,,,,23,103,103,2,774.6550003,,774.6434675,774.6550003,775.6537267,775.6537267,775.6537267,775.6537267,775.6537267,776.6539944,776.6539944,776.8586431,,,,,lctrl,0,0.1886999,None,142662,1,2024-10-17_21h23.34.089,untitled,2024.2.1post4,61.34239238,2024-10-17 21h23.39.257599 +0530
-150,z,104,104,23,z,1,0.4699856,None,,,,,23,104,104,3,776.8719918,,776.8592233,776.8719918,777.8708884,777.8708884,777.8708884,777.8708884,777.8873995,778.8708707,778.8708707,779.3430624,,,,,z,1,0.4699856,None,142662,1,2024-10-17_21h23.34.089,untitled,2024.2.1post4,61.34239238,2024-10-17 21h23.39.257599 +0530
150,y,105,105,31,v,0,0.4315779,None,,,,,31,105,105,1,779.354322,,779.3433545,779.354322,780.3548248,780.3548248,780.3548248,780.3548248,780.3548248,781.3541793,781.3541793,781.7926084,,,,,v,0,0.4315779,None,142662,1,2024-10-17_21h23.34.089,untitled,2024.2.1post4,61.34239238,2024-10-17 21h23.39.257599 +0530
50,c,106,106,24,lctrl,0,0.5709578,None,,,,,24,106,106,2,781.8050583,,781.7930283,781.8050583,782.8040352,782.8040352,782.8040352,782.8040352,782.8040352,783.8042761,783.8042761,784.3769918,,,,,lctrl,0,0.5709578,None,142662,1,2024-10-17_21h23.34.089,untitled,2024.2.1post4,61.34239238,2024-10-17 21h23.39.257599 +0530
-150,z,107,107,24,z,1,0.4755772,None,,,,,24,107,107,3,784.388091,,784.3774768,784.388091,785.3872445,785.3872445,785.3872445,785.3872445,785.3872445,786.3866893,786.3866893,786.8745451,,,,,z,1,0.4755772,None,142662,1,2024-10-17_21h23.34.089,untitled,2024.2.1post4,61.34239238,2024-10-17 21h23.39.257599 +0530
50,c,108,108,25,c,1,0.3356351,None,,,,,25,108,108,2,786.8886268,,786.8747964,786.8886268,787.8875856,787.8875856,787.8875856,787.8875856,787.8875856,788.8868596,788.8868596,789.2253524,,,,,c,1,0.3356351,None,142662,1,2024-10-17_21h23.34.089,untitled,2024.2.1post4,61.34239238,2024-10-17 21h23.39.257599 +0530
-50,x,109,109,26,x,1,0.3517434,None,,,,,26,109,109,0,789.2374148,,789.2256074,789.2374148,790.2378255,790.2378255,790.2378255,790.2378255,790.2378255,791.2370954,791.2370954,791.5905031,,,,,x,1,0.3517434,None,142662,1,2024-10-17_21h23.34.089,untitled,2024.2.1post4,61.34239238,2024-10-17 21h23.39.257599 +0530
150,y,110,110,32,v,0,0.4060832,None,,,,,32,110,110,1,791.6041838,,791.5907594,791.6041838,792.6044751,792.6044751,792.6044751,792.6044751,792.6044751,793.6045104,793.6045104,794.0248387,,,,,v,0,0.4060832,None,142662,1,2024-10-17_21h23.34.089,untitled,2024.2.1post4,61.34239238,2024-10-17 21h23.39.257599 +0530
150,y,111,111,33,v,0,0.4439789,None,,,,,33,111,111,1,794.037261,,794.0251067,794.037261,795.0371169,795.0371169,795.0371169,795.0371169,795.0371169,796.0368717,796.0368717,796.4910246,,,,,v,0,0.4439789,None,142662,1,2024-10-17_21h23.34.089,untitled,2024.2.1post4,61.34239238,2024-10-17 21h23.39.257599 +0530
-50,x,112,112,27,x,1,0.521494,None,,,,,27,112,112,0,796.5042809,,796.4913533,796.5042809,797.5046247,797.5046247,797.5046247,797.5046247,797.5046247,798.5047649,798.5047649,799.0455097,,,,,x,1,0.521494,None,142662,1,2024-10-17_21h23.34.089,untitled,2024.2.1post4,61.34239238,2024-10-17 21h23.39.257599 +0530
150,y,113,113,34,v,0,0.4617687,None,,,,,34,113,113,1,799.0542949,,799.0464532,799.0542949,800.0540939,800.0540939,800.0540939,800.0540939,800.0540939,801.0550188,801.0550188,801.5268652,,,,,v,0,0.4617687,None,142662,1,2024-10-17_21h23.34.089,untitled,2024.2.1post4,61.34239238,2024-10-17 21h23.39.257599 +0530
150,y,114,114,35,v,0,0.3975011,None,,,,,35,114,114,1,801.5379824,,801.5272711,801.5379824,802.5370252,802.5370252,802.5370252,802.5370252,802.5370252,803.5373823,803.5373823,803.9422023,,,,,v,0,0.3975011,None,142662,1,2024-10-17_21h23.34.089,untitled,2024.2.1post4,61.34239238,2024-10-17 21h23.39.257599 +0530
50,c,115,115,26,c,1,0.3471887,None,,,,,26,115,115,2,803.9536873,,803.9424366,803.9536873,804.9539043,804.9539043,804.9539043,804.9539043,804.9539043,805.9545349,805.9545349,806.3083807,,,,,c,1,0.3471887,None,142662,1,2024-10-17_21h23.34.089,untitled,2024.2.1post4,61.34239238,2024-10-17 21h23.39.257599 +0530
-150,z,116,116,25,z,1,0.4836207,None,,,,,25,116,116,3,806.3212499,,806.3100366,806.3212499,807.3209432,807.3209432,807.3209432,807.3209432,807.3209432,808.3209549,808.3209549,808.8087891,,,,,z,1,0.4836207,None,142662,1,2024-10-17_21h23.34.089,untitled,2024.2.1post4,61.34239238,2024-10-17 21h23.39.257599 +0530
50,c,117,117,27,c,1,0.4400979,None,,,,,27,117,117,2,808.8211634,,808.8091829,808.8211634,809.8202788,809.8202788,809.8202788,809.8202788,809.8202788,810.8215119,810.8215119,811.2753199,,,,,c,1,0.4400979,None,142662,1,2024-10-17_21h23.34.089,untitled,2024.2.1post4,61.34239238,2024-10-17 21h23.39.257599 +0530
50,c,118,118,28,c,1,0.6002368,None,,,,,28,118,118,2,811.2882137,,811.2757936,811.2882137,812.2874532,812.2874532,812.2874532,812.2874532,812.2874532,813.2873937,813.2873937,813.8908666,,,,,c,1,0.6002368,None,142662,1,2024-10-17_21h23.34.089,untitled,2024.2.1post4,61.34239238,2024-10-17 21h23.39.257599 +0530
-150,z,119,119,26,z,1,0.6415973,None,,,,,26,119,119,3,813.9045689,,813.8911104,813.9045689,814.9042739,814.9042739,814.9042739,814.9042739,814.9042739,815.9042419,815.9042419,816.5564241,,,,,z,1,0.6415973,None,142662,1,2024-10-17_21h23.34.089,untitled,2024.2.1post4,61.34239238,2024-10-17 21h23.39.257599 +0530
-50,x,120,120,28,x,1,0.531068,None,,,,,28,120,120,0,816.5704214,,816.5566796,816.5704214,817.5709341,817.5709341,817.5709341,817.5709341,817.5709341,818.5708961,818.5708961,819.1120718,,,,,x,1,0.531068,None,142662,1,2024-10-17_21h23.34.089,untitled,2024.2.1post4,61.34239238,2024-10-17 21h23.39.257599 +0530
-50,x,121,121,29,x,1,0.3968577,None,,,,,29,121,121,0,819.1213141,,819.1123714,819.1213141,820.120264,820.120264,820.120264,820.120264,820.120264,821.1205067,821.1205067,821.5238594,,,,,x,1,0.3968577,None,142662,1,2024-10-17_21h23.34.089,untitled,2024.2.1post4,61.34239238,2024-10-17 21h23.39.257599 +0530
-50,x,122,122,30,x,1,0.4016878,None,,,,,30,122,122,0,821.5378562,,821.5241031,821.5378562,822.5366553,822.5366553,822.5366553,822.5366553,822.5366553,823.5371612,823.5371612,823.9423568,,,,,x,1,0.4016878,None,142662,1,2024-10-17_21h23.34.089,untitled,2024.2.1post4,61.34239238,2024-10-17 21h23.39.257599 +0530
-50,x,123,123,31,x,1,0.4225266,None,,,,,31,123,123,0,823.9548452,,823.9426806,823.9548452,824.9541639,824.9541639,824.9541639,824.9541639,824.9697111,825.9536999,825.9536999,826.3919729,,,,,x,1,0.4225266,None,142662,1,2024-10-17_21h23.34.089,untitled,2024.2.1post4,61.34239238,2024-10-17 21h23.39.257599 +0530
50,c,124,124,29,c,1,0.4377559,None,,,,,29,124,124,2,826.4040548,,826.3923085,826.4040548,827.4034424,827.4034424,827.4034424,827.4034424,827.4034424,828.4034348,828.4034348,828.8574658,,,,,c,1,0.4377559,None,142662,1,2024-10-17_21h23.34.089,untitled,2024.2.1post4,61.34239238,2024-10-17 21h23.39.257599 +0530
50,c,125,125,30,c,1,0.6513463,None,,,,,30,125,125,2,828.8708615,,828.8577634,828.8708615,829.8697125,829.8697125,829.8697125,829.8697125,829.8697125,830.869813,830.869813,831.5244837,,,,,c,1,0.6513463,None,142662,1,2024-10-17_21h23.34.089,untitled,2024.2.1post4,61.34239238,2024-10-17 21h23.39.257599 +0530
-50,x,126,126,32,x,1,0.462288,None,,,,,32,126,126,0,831.5367558,,831.5248042,831.5367558,832.5371065,832.5371065,832.5371065,832.5371065,832.5371065,833.5371126,833.5371126,834.0071285,,,,,x,1,0.462288,None,142662,1,2024-10-17_21h23.34.089,untitled,2024.2.1post4,61.34239238,2024-10-17 21h23.39.257599 +0530
